AccX,AccY,AccZ,roll,pitch,yaw,Temp,Humidity,MagX,MagY,MagZ,GyroX,GyroY,GyroZ
2021-10-25 20:38:19.714659,0.00360107421875,0.01910400390625,1.0010986328125,1.470892899570513,1.6340155257202333,167.81208039482803,33.308868408203125,32.11822509765625,5.625,123.75,14.25,-0.06097560975609757,-0.06097560975609757,0.030487804878048783
2021-10-25 20:38:20.184262,0.003662109375,0.01983642578125,1.001708984375,1.4588664727705325,1.238328067068352,170.3852658905801,33.27415466308594,32.1044921875,24577.625,121.125,12.625,-0.030487804878048783,-0.09146341463414635,0.0
2021-10-25 20:38:20.634823,0.004150390625,0.01934814453125,1.00128173828125,2.56144247104495,2.666590461741323,158.6794983999014,33.27949523925781,32.12432861328125,7.75,120.5,13.125,-0.030487804878048783,0.0,0.0
2021-10-25 20:38:21.097292,0.005126953125,0.0181884765625,1.001220703125,2.3574516675064694,2.0412959265536057,163.04738693657677,33.308868408203125,32.10601806640625,8196.5,123.125,12.625,-0.7926829268292683,-0.7926829268292683,0.06097560975609757
2021-10-25 20:38:21.547180,0.00689697265625,0.01519775390625,1.00299072265625,2.1303550442491925,1.5395085520211385,166.62622448786556,33.27415466308594,32.10296630859375,24578.125,119.375,11.0,-0.2134146341463415,-0.15243902439024393,0.030487804878048783
2021-10-25 20:38:21.998420,0.0108642578125,0.0181884765625,1.00506591796875,1.8101685211980114,1.019401335676248,169.34104984436445,33.29017639160156,32.08465576171875,8198.0,120.375,14.375,-2.804878048780488,-1.5548780487804879,0.24390243902439027
2021-10-25 20:38:22.462931,0.05865478515625,0.0107421875,1.06134033203125,0.7196597153031155,-3.698004077193191,168.9362246293175,33.244781494140625,32.26776123046875,48.75,122.375,-16400.875,-9.237804878048781,-64.84756097560977,-7.01219512195122
2021-10-25 20:38:22.988505,0.78558349609375,0.47015380859375,0.38409423828125,9.975779378731616,-20.515167778750037,161.00373587956983,33.27949523925781,32.61566162109375,44.125,175.0,-282.875,134.08536585365854,-100.33536585365854,-67.6829268292683
2021-10-25 20:38:23.435153,0.50262451171875,0.548828125,-1.00018310546875,12.65096355276464,-30.27142475439643,162.82284672198904,33.21540832519531,32.7392578125,16407.625,158.5,-292.0,-67.46951219512195,-34.176829268292686,17.652439024390244
2021-10-25 20:38:23.892239,-0.891845703125,0.37213134765625,0.56536865234375,12.14246070662476,-16.965838649015126,148.16211460290137,33.212738037109375,32.9071044921875,-89.625,179.375,-12.75,-41.34146341463415,54.69512195121952,-66.64634146341464
2021-10-25 20:38:24.339881,0.815185546875,0.5108642578125,-0.1636962890625,22.145914158033904,-33.672783966678985,141.67476893851708,33.202056884765625,33.25347900390625,25.625,150.75,-290.125,86.40243902439025,-103.75000000000001,3.26219512195122
2021-10-25 20:38:24.795237,0.3145751953125,0.47509765625,0.2818603515625,20.912484376709077,-6.84072512625144,141.3893907547708,33.202056884765625,33.62274169921875,-78.875,175.0,-16388.75,-142.5609756097561,518.4146341463415,-170.82317073170734
2021-10-25 20:38:25.252022,0.351318359375,0.30706787109375,0.9217529296875,25.738205332524647,-26.2590479097029,124.95854913100959,33.17535400390625,33.9019775390625,29.25,178.125,-125.375,51.493902439024396,-378.93292682926835,-64.96951219512195
2021-10-25 20:38:25.700434,0.8355712890625,0.5059814453125,-0.250244140625,33.91104638471582,-29.360431946232513,121.52835486562347,33.202056884765625,34.1278076171875,81.125,162.625,-172.875,28.201219512195124,130.88414634146343,-26.82926829268293
2021-10-25 20:38:26.175695,-0.63714599609375,0.1666259765625,0.89337158203125,26.790275539883343,-12.003369729208025,111.29695220175225,33.18336486816406,34.3475341796875,-96.875,133.625,16.0,-38.71951219512196,65.76219512195122,-90.97560975609757
2021-10-25 20:38:26.624716,0.3668212890625,0.48455810546875,0.5308837890625,35.051027316063454,-14.48560874738885,116.66474383518373,33.16734313964844,34.552001953125,8215.375,167.375,-24596.5,85.1829268292683,18.628048780487806,76.12804878048782
2021-10-25 20:38:27.099343,-0.72857666015625,0.0853271484375,0.76300048828125,34.24150310317687,-0.4607187260151853,102.61835635176168,33.1219482421875,34.698486328125,-145.25,151.25,-21.375,94.45121951219512,-35.33536585365854,-109.39024390243904
2021-10-25 20:38:27.547027,0.49517822265625,0.21612548828125,1.06878662109375,29.184468673097093,-10.66872683280155,110.00912878242185,33.13529968261719,34.98687744140625,68.75,145.25,-21.0,15.914634146341465,-34.60365853658537,110.64024390243904
2021-10-25 20:38:28.000959,-0.24041748046875,0.3648681640625,0.5765380859375,29.267810006087156,0.1690816179867693,103.38972308914828,33.09257507324219,35.198974609375,-122.875,141.0,-8193.125,-21.615853658536587,18.475609756097562,-176.3109756097561
2021-10-25 20:38:28.450191,-0.4345703125,0.08697509765625,0.58734130859375,21.130578422660435,1.9146088676372561,124.212893876133,33.04985046386719,35.16845703125,32765.625,139.0,14.625,-75.2439024390244,-62.10365853658537,200.09146341463418
2021-10-25 20:38:28.904498,0.06134033203125,0.00323486328125,0.8951416015625,9.799310384815074,10.226979202556716,118.56327958082097,32.99644470214844,35.18524169921875,-128.75,117.625,16389.625,16.890243902439025,120.45731707317074,-182.6219512195122
2021-10-25 20:38:29.365528,-0.08807373046875,0.03826904296875,0.73223876953125,9.91550708266363,-7.839142336435694,123.36541203757302,33.04985046386719,35.15777587890625,40.125,116.125,-24580.625,17.378048780487806,-265.57926829268297,139.60365853658539
2021-10-25 20:38:29.813571,-0.40234375,-0.0780029296875,0.8258056640625,8.710402786271281,9.237380352676194,120.87805362042663,33.031158447265625,35.0799560546875,-169.25,107.375,-8202.75,36.79878048780488,197.07317073170734,-115.06097560975611
2021-10-25 20:38:30.287822,-0.0611572265625,0.15838623046875,0.793212890625,9.8755105633362,-5.4116304186642745,134.0484531331492,32.988433837890625,34.98077392578125,8222.875,114.25,-11.375,2.408536585365854,-287.31707317073176,76.25
2021-10-25 20:38:30.783164,-0.40985107421875,-0.01727294921875,0.76715087890625,7.692667538869801,8.935296974261526,133.21457037046156,33.020477294921875,35.01129150390625,-160.75,100.0,-32762.25,7.621951219512196,161.46341463414635,-56.12804878048781
2021-10-25 20:38:31.229596,-0.57879638671875,0.04461669921875,0.82861328125,3.2451282476377856,17.110006019339114,122.1213538725271,33.041839599609375,35.05859375,-74.125,127.375,11.0,-71.5548780487805,-8.01829268292683,-4.0548780487804885
2021-10-25 20:38:31.700083,0.5394287109375,0.02606201171875,0.774658203125,6.390326287128807,5.655803283102342,123.10738961391955,32.99644470214844,35.01129150390625,58.75,122.0,-45.0,59.268292682926834,-11.676829268292684,65.57926829268293
2021-10-25 20:38:32.149878,-0.5675048828125,0.00048828125,0.9388427734375,3.5498332154040706,18.692003354330883,123.7515189623821,32.99644470214844,34.95025634765625,-155.75,107.5,8205.5,14.878048780487806,162.89634146341464,-8.353658536585366
2021-10-25 20:38:32.611266,-0.95196533203125,-0.12286376953125,0.46844482421875,4.634846165798839,19.83947044998355,123.61533761134113,32.96974182128906,34.8541259765625,-155.5,122.0,-16395.25,1.2195121951219514,-32.10365853658537,19.969512195121954
2021-10-25 20:38:33.069248,0.50701904296875,0.25433349609375,0.70751953125,7.871029864424091,1.1240722940250971,124.17319618910585,32.93769836425781,34.82666015625,90.75,153.125,-104.125,8.75,-148.07926829268294,36.09756097560976
2021-10-25 20:38:33.518131,-0.23291015625,0.3555908203125,0.774169921875,14.258925381203115,17.90197814806915,122.75815748060351,32.870941162109375,34.85870361328125,-148.25,153.125,-8210.5,75.97560975609757,301.82926829268297,-111.98170731707319
2021-10-25 20:38:33.970773,-0.34442138671875,0.04241943359375,0.8238525390625,17.206068597628146,7.41618934136406,133.89869323824772,32.87628173828125,34.759521484375,24583.25,157.625,-37.875,54.024390243902445,-251.40243902439028,89.26829268292684
2021-10-25 20:38:34.486901,0.13897705078125,0.12579345703125,1.0628662109375,17.608655276081524,19.575559185467455,139.3919981633771,32.79083251953125,34.69085693359375,-129.0,133.375,-32762.0,40.518292682926834,427.13414634146346,6.158536585365854
2021-10-25 20:38:34.933524,0.029052734375,0.163330078125,0.85858154296875,20.837272894172596,5.805187845834091,149.9860654511779,32.860260009765625,34.5550537109375,16390.125,157.875,-31.0,46.18902439024391,-170.45731707317074,118.84146341463416
2021-10-25 20:38:35.442342,-0.0704345703125,-0.05908203125,0.95904541015625,16.38888681565662,10.156395995612483,142.35358805684706,32.8228759765625,34.5306396484375,-12.0,95.125,27.75,-43.38414634146342,-12.347560975609758,-2.408536585365854
2021-10-25 20:38:35.892068,0.0128173828125,0.0164794921875,1.015380859375,11.921152873106376,11.178731056817451,134.09501622258458,32.79884338378906,34.55810546875,-8197.375,120.25,15.125,4.085365853658537,-3.810975609756098,-0.8841463414634148
2021-10-25 20:38:36.354817,0.0072021484375,0.007568359375,1.0037841796875,7.748817953022217,12.27073582500546,124.86451878059934,32.86293029785156,34.7015380859375,-16388.0,117.375,15.0,0.0,0.0,0.06097560975609757
2021-10-25 20:38:36.807062,0.0069580078125,0.00823974609375,1.00213623046875,4.064419705071107,13.23427151702856,114.59556992384633,32.85758972167969,34.85870361328125,-8195.25,119.625,12.375,-0.030487804878048783,0.030487804878048783,-0.030487804878048783
2021-10-25 20:38:37.257933,-0.00189208984375,0.03082275390625,1.0186767578125,0.9602492184185248,13.928629759417584,103.62148819146782,32.84156799316406,34.954833984375,-16385.75,120.125,12.625,-1.829268292682927,-1.4329268292682928,0.30487804878048785
2021-10-25 20:38:37.707467,-0.00335693359375,-0.008544921875,1.0921630859375,3.6086781027535517,5.197591165641993,103.99749709215074,32.84156799316406,35.14862060546875,26.125,122.75,-24579.375,4.451219512195122,-45.274390243902445,8.445121951219512
2021-10-25 20:38:38.175792,0.18048095703125,-0.0775146484375,0.5347900390625,-5.160466519135819,19.637486396167446,93.66165475793495,32.84156799316406,35.4827880859375,-16386.125,119.25,12.0,-96.92073170731709,391.859756097561,7.926829268292684
2021-10-25 20:38:38.630773,0.85223388671875,0.1846923828125,0.24127197265625,-2.0265988520203932,15.651651039871725,96.98680688727087,32.8228759765625,35.85357666015625,8236.625,99.5,-24587.75,-52.28658536585366,172.25609756097563,47.19512195121952
2021-10-25 20:38:39.153602,0.40155029296875,0.01556396484375,0.57000732421875,-0.16857643099664232,-4.16680869895982,97.67472036148489,32.764129638671875,35.9649658203125,8238.0,110.0,-24594.875,2.8353658536585367,-219.81707317073173,-32.6219512195122
2021-10-25 20:38:39.600613,0.84228515625,-0.0009765625,0.4891357421875,0.7279795811644169,-17.79386186884829,102.71373404435052,32.78282165527344,36.08551025390625,98.375,128.375,-98.0,5.640243902439025,-122.6829268292683,-16.03658536585366
2021-10-25 20:38:40.065801,-0.0711669921875,0.00482177734375,1.027587890625,0.9046137353506898,-12.165991089485138,98.89171178420926,32.74009704589844,36.212158203125,-9.375,119.5,12.625,9.725609756097562,13.384146341463415,-2.0121951219512195
2021-10-25 20:38:40.517796,0.3162841796875,0.0308837890625,0.97210693359375,4.160306662822594,-10.713866694587617,97.12763451120694,32.74009704589844,36.1236572265625,-23.5,120.375,-24579.75,8.628048780487806,9.878048780487806,-38.29268292682927
2021-10-25 20:38:40.975883,-0.1435546875,-0.25579833984375,0.7066650390625,-3.155204336260697,-5.882601670915614,91.89067470670632,32.70271301269531,35.8642578125,-51.625,77.5,16.125,-37.04268292682927,-1.707317073170732,38.47560975609756
2021-10-25 20:38:41.422902,-0.00091552734375,0.03948974609375,1.00732421875,0.2623958313141458,-3.41101949925343,91.96465744790623,32.69203186035156,35.711669921875,-72.5,110.5,-32766.875,4.51219512195122,-0.27439024390243905,2.25609756097561
2021-10-25 20:38:41.880980,0.07647705078125,0.0733642578125,0.99407958984375,1.7163656371331797,-2.9671747552021603,91.92680574536065,32.65998840332031,35.63232421875,-61.625,119.0,-24575.75,-0.09146341463414635,-0.5487804878048781,-0.15243902439024393
2021-10-25 20:38:42.368989,0.07568359375,0.068603515625,0.9959716796875,2.4209215870636447,-2.742556268457028,91.92550928890022,32.667999267578125,35.57281494140625,-61.125,115.625,-8195.375,-0.12195121951219513,-0.030487804878048783,-0.030487804878048783
2021-10-25 20:38:42.817705,0.0770263671875,0.06890869140625,0.9949951171875,2.7654934235240907,-3.1242014060021237,86.14667608860232,32.63328552246094,35.54229736328125,-59.125,118.875,-2.875,-0.12195121951219513,-0.09146341463414635,0.030487804878048783
2021-10-25 20:38:43.311428,0.07183837890625,0.06695556640625,0.9879150390625,3.1772226348164248,-2.7211276578064747,86.18016523105861,32.61993408203125,35.48431396484375,-57.625,112.125,-8193.125,-0.5487804878048781,-0.5487804878048781,0.12195121951219513
2021-10-25 20:38:43.773634,0.077392578125,0.0693359375,0.9931640625,1.8194183452081745,-2.5454557924343013,86.20386634097508,32.61993408203125,35.38360595703125,-55.875,113.75,32765.625,-0.06097560975609757,0.0,0.0
2021-10-25 20:38:44.230375,0.07763671875,0.0704345703125,0.99468994140625,1.2778006121950494,-2.428316357725333,86.19792486537202,32.63328552246094,35.27679443359375,-57.5,113.25,32767.0,-0.030487804878048783,0.06097560975609757,0.030487804878048783
2021-10-25 20:38:44.682444,0.07806396484375,0.0697021484375,0.99591064453125,2.10537120785738,-2.34640579903863,86.19102839053673,32.667999267578125,35.1531982421875,-55.25,112.0,-16384.75,-0.09146341463414635,0.030487804878048783,0.0
2021-10-25 20:38:45.128807,0.0775146484375,0.06927490234375,0.99517822265625,2.6373992389570975,-2.3252784419948465,86.2023495398415,32.65464782714844,35.07843017578125,-53.125,119.5,-8193.5,-0.06097560975609757,-0.030487804878048783,0.06097560975609757
2021-10-25 20:38:45.666301,0.0780029296875,0.070068359375,0.9945068359375,1.6627245160055772,-2.3168209520247243,86.21226147428804,32.63328552246094,34.9365234375,-56.0,112.125,32767.375,-0.06097560975609757,0.0,0.0
2021-10-25 20:38:46.204447,0.0780029296875,0.06982421875,0.99517822265625,1.240133887547463,-2.302964094986634,86.20176522194862,32.62794494628906,34.67559814453125,-53.5,112.375,32766.375,-0.06097560975609757,0.0,-0.030487804878048783
2021-10-25 20:38:46.676009,0.078125,0.06915283203125,0.99432373046875,2.0722701081150388,-2.2658525773260374,86.19549701267525,32.61192321777344,34.49554443359375,-58.0,112.125,-24577.5,-0.12195121951219513,0.06097560975609757,0.030487804878048783
2021-10-25 20:38:47.122843,0.0777587890625,0.07025146484375,0.9954833984375,2.6541496957058146,-2.2465853504541418,86.19942747814858,32.57720947265625,34.30938720703125,-59.125,110.0,-16385.0,-0.09146341463414635,0.06097560975609757,-0.030487804878048783
2021-10-25 20:38:47.600305,0.0782470703125,0.07080078125,0.9954833984375,3.1103979683802603,-2.214271050283302,86.21252260520998,32.593231201171875,34.185791015625,-55.125,111.25,-32766.875,-0.09146341463414635,0.030487804878048783,-0.030487804878048783
2021-10-25 20:38:48.046811,0.078857421875,0.0689697265625,0.99639892578125,1.855725430863092,-2.2646974546083776,86.2360875265035,32.625274658203125,34.063720703125,-58.375,111.625,32767.0,-0.030487804878048783,0.030487804878048783,0.06097560975609757
2021-10-25 20:38:48.530215,0.07794189453125,0.06988525390625,0.99493408203125,2.4468297792178944,-2.293733176202584,86.23729482381425,32.56919860839844,33.96148681640625,-60.0,112.75,-8195.875,-0.030487804878048783,0.09146341463414635,-0.030487804878048783
2021-10-25 20:38:48.979308,0.07861328125,0.07086181640625,0.99554443359375,2.965103210833115,-2.2457887415811726,86.25024385443692,32.59056091308594,33.868408203125,-57.5,117.625,-32766.25,-0.06097560975609757,0.09146341463414635,0.030487804878048783
2021-10-25 20:38:49.472330,0.077392578125,0.068603515625,0.99420166015625,3.3087722873601604,-2.210481656591171,86.26966356581993,32.58522033691406,33.8104248046875,-59.25,114.625,-24578.75,-0.06097560975609757,0.030487804878048783,-0.030487804878048783
2021-10-25 20:38:49.921111,0.0792236328125,0.07025146484375,0.99493408203125,3.5739534293093276,-2.2193207988952692,86.29719767550513,32.603912353515625,33.7310791015625,-56.25,114.75,-16387.0,-0.030487804878048783,0.06097560975609757,0.030487804878048783
2021-10-25 20:38:50.391426,0.07720947265625,0.070556640625,0.99493408203125,3.7851963704508083,-2.184287048976496,86.32762633580917,32.57720947265625,33.6883544921875,-57.5,111.5,-24579.25,-0.12195121951219513,0.06097560975609757,0.0
2021-10-25 20:38:50.846877,0.07757568359375,0.07061767578125,0.9949951171875,3.945433457758968,-2.164430499899833,86.35991950411946,32.56385803222656,33.65936279296875,-57.875,110.875,-24575.5,-0.06097560975609757,0.12195121951219513,-0.030487804878048783
2021-10-25 20:38:51.297712,0.0780029296875,0.06982421875,0.9959716796875,2.2200504732233357,-2.224287467670931,86.3988933058913,32.57453918457031,33.6181640625,-59.0,113.75,24576.0,-0.09146341463414635,0.06097560975609757,0.030487804878048783
2021-10-25 20:38:51.748499,0.0782470703125,0.0694580078125,0.99627685546875,2.7479073593892096,-2.2247553646036375,86.40713186004524,32.550506591796875,33.587646484375,-54.875,114.625,-16384.75,-0.09146341463414635,0.09146341463414635,0.0
2021-10-25 20:38:52.197916,0.07879638671875,0.0694580078125,0.99639892578125,1.7359672816371559,-2.253965057187744,86.42009028057018,32.55851745605469,33.5906982421875,-58.0,117.75,24576.875,-0.09146341463414635,0.06097560975609757,0.030487804878048783
2021-10-25 20:38:52.677127,0.078125,0.06854248046875,0.99481201171875,2.242513721732853,-2.8116908613966185,81.49795070071762,32.56919860839844,33.56475830078125,-57.875,111.75,-3.5,-0.09146341463414635,0.0,0.06097560975609757
2021-10-25 20:38:53.124775,0.07830810546875,0.07000732421875,0.9942626953125,2.800270105664038,-2.53520718810087,81.51604959309317,32.53181457519531,33.5418701171875,-60.125,110.875,-8196.25,0.0,0.030487804878048783,0.030487804878048783
2021-10-25 20:38:53.583782,0.07958984375,0.07037353515625,0.99591064453125,1.7222894883595192,-2.512235946758472,81.52766297221794,32.56919860839844,33.5052490234375,-60.0,112.125,24574.625,-0.12195121951219513,0.030487804878048783,0.030487804878048783
2021-10-25 20:38:54.030951,0.0777587890625,0.069091796875,0.99530029296875,1.2685641129692207,-2.4427541314396475,81.51517372322638,32.53448486328125,33.5357666015625,-56.375,111.875,16384.375,-0.09146341463414635,0.030487804878048783,0.0
2021-10-25 20:38:54.525999,0.07781982421875,0.0697021484375,0.99603271484375,2.119948144759217,-2.2893981852240795,81.51102774317322,32.57720947265625,33.5174560546875,-56.375,114.875,-24577.25,-0.06097560975609757,0.030487804878048783,0.030487804878048783
2021-10-25 20:38:54.990640,0.07891845703125,0.06982421875,0.99456787109375,2.68480404692306,-2.218538082740084,81.52314216854238,32.518463134765625,33.50982666015625,-60.75,111.625,-16387.5,0.0,0.06097560975609757,0.06097560975609757
2021-10-25 20:38:55.437504,0.07794189453125,0.0694580078125,0.9970703125,3.0966487942864664,-2.136842154902285,81.5407406009956,32.57720947265625,33.4869384765625,-59.125,111.5,-24576.375,-0.09146341463414635,0.06097560975609757,-0.030487804878048783
2021-10-25 20:38:55.889730,0.0780029296875,0.06903076171875,0.9951171875,3.382155081092211,-2.0971210083921132,81.56566045147311,32.53181457519531,33.4747314453125,-59.75,112.25,-16387.125,-0.030487804878048783,0.06097560975609757,-0.030487804878048783
2021-10-25 20:38:56.348085,0.0792236328125,0.069091796875,0.9959716796875,3.6032786099751495,-2.0673999152059452,81.59963946549624,32.54249572753906,33.4625244140625,-58.0,112.375,-24576.5,-0.06097560975609757,0.09146341463414635,0.06097560975609757
2021-10-25 20:38:56.809131,0.0791015625,0.06976318359375,0.99615478515625,3.779607246769374,-2.042312884609841,81.632784061893,32.539825439453125,33.4686279296875,-55.625,111.375,-24574.75,0.0,0.09146341463414635,-0.030487804878048783
2021-10-25 20:38:57.288728,0.07843017578125,0.070556640625,0.99676513671875,3.8379909421681644,-2.527782099017135,77.59270441435238,32.54783630371094,33.4747314453125,-59.125,112.875,-4.125,-0.12195121951219513,0.12195121951219513,0.030487804878048783
2021-10-25 20:38:57.735431,0.0791015625,0.06976318359375,0.9967041015625,2.1344043826072765,-2.6008750613000644,77.62608065647828,32.57453918457031,33.453369140625,-55.75,114.125,32762.375,-0.06097560975609757,0.06097560975609757,0.030487804878048783
2021-10-25 20:38:58.268108,0.07879638671875,0.070068359375,0.99462890625,2.6802262562949872,-2.3722593162111694,77.64374461509043,32.5665283203125,33.46405029296875,-58.875,116.375,-8195.5,-0.06097560975609757,0.030487804878048783,0.030487804878048783
2021-10-25 20:38:58.781816,0.0780029296875,0.069091796875,0.99468994140625,3.051434942861797,-2.2088109770800233,77.67319611993123,32.54249572753906,33.4716796875,-55.375,112.75,-8194.75,-0.06097560975609757,0.12195121951219513,0.06097560975609757
2021-10-25 20:38:59.228214,0.07745361328125,0.06854248046875,0.9959716796875,1.861078217929246,-2.3512646730227114,77.688301679434,32.53448486328125,33.44879150390625,-57.625,112.125,24577.625,-0.12195121951219513,0.06097560975609757,0.030487804878048783
2021-10-25 20:38:59.690794,0.0787353515625,0.0693359375,0.99462890625,1.3479506859363135,-2.4197328027857257,77.67980456359004,32.55851745605469,33.465576171875,-57.0,113.375,24577.0,-0.030487804878048783,0.0,0.0
2021-10-25 20:39:00.145023,0.07830810546875,0.06884765625,0.99481201171875,2.069678011494403,-2.2947792648862224,77.68217437750404,32.55851745605469,33.45184326171875,-57.875,111.875,-8197.875,-0.06097560975609757,0.06097560975609757,0.06097560975609757
2021-10-25 20:39:00.596044,0.07830810546875,0.06903076171875,0.99462890625,1.4304922009664713,-2.39151890617737,77.67576934569034,32.56919860839844,33.43048095703125,-54.125,115.125,32766.375,-0.06097560975609757,0.06097560975609757,-0.06097560975609757
2021-10-25 20:39:01.043216,0.07794189453125,0.069091796875,0.99560546875,1.1228116995786246,-2.427631263731284,77.66216015019332,32.51312255859375,33.392333984375,-58.25,117.5,32766.375,-0.06097560975609757,0.06097560975609757,0.030487804878048783
2021-10-25 20:39:01.490930,0.07916259765625,0.0712890625,0.99560546875,1.0230794801319278,-2.439966111191041,77.63930848068136,32.50511169433594,33.4197998046875,-61.5,112.875,16384.625,-0.09146341463414635,0.0,0.030487804878048783
2021-10-25 20:39:01.979185,0.07916259765625,0.069091796875,0.99603271484375,1.9406491318076193,-2.270886732413191,77.63200512024403,32.51312255859375,33.447265625,-56.75,110.75,-24578.625,-0.030487804878048783,0.030487804878048783,0.030487804878048783
2021-10-25 20:39:02.432420,0.0784912109375,0.07080078125,0.9957275390625,1.3932864395577755,-2.3742023320744208,77.62393171818046,32.507781982421875,33.43353271484375,-57.625,112.375,32765.375,-0.12195121951219513,0.06097560975609757,-0.030487804878048783
2021-10-25 20:39:02.956962,0.0787353515625,0.0687255859375,0.99566650390625,2.172498861055335,-2.218760605525202,77.62062554494854,32.53448486328125,33.45489501953125,-56.625,111.25,-24577.875,-0.12195121951219513,0.09146341463414635,-0.030487804878048783
2021-10-25 20:39:03.408560,0.07855224609375,0.06951904296875,0.9954833984375,2.700386011295184,-2.123823112401759,77.63008952898262,32.51579284667969,33.4808349609375,-55.0,112.25,-16384.875,-0.06097560975609757,0.0,-0.06097560975609757
2021-10-25 20:39:03.873213,0.07904052734375,0.07049560546875,0.9964599609375,3.103079836141971,-2.05045827281458,77.65224876104477,32.53181457519531,33.47320556640625,-60.0,112.625,-24577.125,-0.030487804878048783,0.0,0.030487804878048783
2021-10-25 20:39:04.328064,0.07928466796875,0.0699462890625,0.993896484375,3.3891238761852875,-1.9957774628194986,77.6820117233905,32.51579284667969,33.48541259765625,-56.0,113.0,-24576.5,-0.09146341463414635,0.06097560975609757,0.030487804878048783
2021-10-25 20:39:04.806293,0.07928466796875,0.069580078125,0.99591064453125,2.012617948092267,-2.2682045100809667,77.6991122509387,32.550506591796875,33.49609375,-59.0,109.875,32765.625,-0.12195121951219513,0.06097560975609757,-0.06097560975609757
2021-10-25 20:39:05.252659,0.07965087890625,0.06982421875,0.99749755859375,2.6073398913718253,-2.1582130593492717,77.71083008190193,32.51579284667969,33.48388671875,-56.5,112.0,-24577.125,-0.09146341463414635,0.0,0.06097560975609757
2021-10-25 20:39:05.720543,0.0784912109375,0.070068359375,0.9959716796875,1.6891676536207774,-2.326378469175915,77.71505346318581,32.51579284667969,33.50677490234375,-56.625,112.75,32766.75,-0.06097560975609757,0.06097560975609757,-0.030487804878048783
2021-10-25 20:39:06.173080,0.0794677734375,0.07110595703125,0.99591064453125,2.4051560943372734,-2.1962207758236327,77.71898328592393,32.539825439453125,33.49456787109375,-57.0,112.375,-24578.125,-0.030487804878048783,0.06097560975609757,0.030487804878048783
2021-10-25 20:39:06.683000,0.0789794921875,0.0704345703125,0.995849609375,2.8784558700597005,-2.1090601647892724,77.7354077207641,32.518463134765625,33.47320556640625,-56.875,116.25,-16385.5,-0.06097560975609757,0.030487804878048783,0.0
2021-10-25 20:39:07.131695,0.079833984375,0.07061767578125,0.99530029296875,3.233944217008394,-2.0434244539940267,77.76095665580367,32.52647399902344,33.48541259765625,-59.5,112.25,-24575.875,-0.09146341463414635,0.09146341463414635,0.030487804878048783
2021-10-25 20:39:07.658573,0.07855224609375,0.06951904296875,0.995849609375,3.4693456230227264,-1.9865339522990983,77.79415823909315,32.53181457519531,33.47320556640625,-56.625,114.875,-16386.875,-0.09146341463414635,0.09146341463414635,0.030487804878048783
2021-10-25 20:39:08.105289,0.0787353515625,0.070068359375,0.99609375,3.6586757097188705,-1.939930593460202,77.83029910491553,32.56919860839844,33.47625732421875,-56.625,112.5,-24577.375,-0.09146341463414635,0.06097560975609757,0.030487804878048783
2021-10-25 20:39:08.577059,0.07818603515625,0.06939697265625,0.99493408203125,3.7584123534607436,-1.9446664266917022,77.87165683967096,32.56385803222656,33.47930908203125,-58.375,112.25,-8195.875,-0.09146341463414635,0.06097560975609757,0.030487804878048783
2021-10-25 20:39:09.027726,0.0782470703125,0.06951904296875,0.99603271484375,3.835030118440703,-1.9450002196119913,77.91475306089475,32.57453918457031,33.47320556640625,-57.875,109.5,-8194.625,-0.12195121951219513,0.030487804878048783,0.030487804878048783
2021-10-25 20:39:09.488003,0.07794189453125,0.0703125,0.9970703125,3.926165629954352,-1.9045750437009812,77.95654214548674,32.56919860839844,33.47930908203125,-57.75,113.0,-16388.125,-0.09146341463414635,0.06097560975609757,0.0
2021-10-25 20:39:09.935073,0.07928466796875,0.0694580078125,0.99676513671875,3.9907861605739723,-1.8869468131107572,77.99765263671557,32.61192321777344,33.47320556640625,-56.75,110.625,-24577.25,-0.09146341463414635,0.030487804878048783,-0.030487804878048783
2021-10-25 20:39:10.384989,0.078857421875,0.0693359375,0.99603271484375,4.03883215326206,-1.871080703702601,78.04425624684782,32.60124206542969,33.47930908203125,-57.5,115.0,-24577.25,-0.06097560975609757,0.030487804878048783,0.06097560975609757
2021-10-25 20:39:10.857146,0.07916259765625,0.0704345703125,0.99615478515625,4.07874440303912,-1.8729235435060796,78.09016201033475,32.61993408203125,33.4747314453125,-58.25,112.125,-16389.375,-0.09146341463414635,0.09146341463414635,0.030487804878048783
2021-10-25 20:39:11.313446,0.078369140625,0.06964111328125,0.99554443359375,4.082049418698171,-1.8901239845754507,78.13851262315876,32.6092529296875,33.4625244140625,-55.375,107.375,-8196.375,-0.09146341463414635,0.12195121951219513,0.030487804878048783
2021-10-25 20:39:11.829389,0.0791015625,0.0692138671875,0.99566650390625,4.106981499923511,-1.8732456938456352,78.18691275498547,32.60124206542969,33.465576171875,-56.25,110.625,-24576.875,-0.09146341463414635,0.06097560975609757,0.06097560975609757
2021-10-25 20:39:12.279323,0.07904052734375,0.06939697265625,0.99493408203125,4.129036959279763,-1.8658849710727226,78.2322495395417,32.59857177734375,33.4381103515625,-57.875,110.5,-24575.75,-0.06097560975609757,0.030487804878048783,0.0
2021-10-25 20:39:12.740083,0.07806396484375,0.06964111328125,0.9962158203125,2.3366018342367814,-2.1893687830784785,78.26763957509505,32.61726379394531,33.441162109375,-56.5,114.0,24573.25,-0.12195121951219513,0.06097560975609757,0.06097560975609757
2021-10-25 20:39:13.238673,0.07763671875,0.069091796875,0.99365234375,2.8112125383385895,-2.1013330868125,78.28412180778776,32.60124206542969,33.40911865234375,-57.375,111.875,-16386.5,-0.12195121951219513,0.030487804878048783,0.030487804878048783
2021-10-25 20:39:13.686849,0.078857421875,0.07110595703125,0.99560546875,1.791587483573213,-2.294329194280985,78.29327069360036,32.59056091308594,33.4075927734375,-56.5,111.875,32766.5,-0.06097560975609757,0.12195121951219513,0.0
2021-10-25 20:39:14.226125,0.0787353515625,0.06884765625,0.99560546875,2.4445610969988514,-2.1745011153869305,78.29966455880738,32.56919860839844,33.39385986328125,-58.375,112.375,-24576.125,-0.06097560975609757,0.06097560975609757,0.030487804878048783
2021-10-25 20:39:14.782070,0.078857421875,0.07012939453125,0.995849609375,2.923971831277878,-2.0856499122639063,78.31679188437322,32.58522033691406,33.39691162109375,-61.625,111.0,-32766.875,-0.06097560975609757,0.06097560975609757,0.030487804878048783
2021-10-25 20:39:15.229649,0.07958984375,0.06982421875,0.99755859375,3.2475817222030825,-2.0442874888018014,78.34203893992719,32.59857177734375,33.39385986328125,-55.5,114.0,-16387.25,-0.030487804878048783,0.0,0.0
2021-10-25 20:39:15.695383,0.07891845703125,0.0697021484375,0.9962158203125,3.4830184551253427,-2.004207542103372,78.3730379451028,32.625274658203125,33.38775634765625,-58.75,113.375,-16383.875,-0.09146341463414635,0.030487804878048783,0.0
2021-10-25 20:39:16.243060,0.07928466796875,0.06988525390625,0.995849609375,3.6384922665473423,-1.9997711574050736,78.41308667121716,32.62794494628906,33.37860107421875,-53.125,111.0,-8193.875,-0.09146341463414635,0.09146341463414635,0.06097560975609757
2021-10-25 20:39:16.791131,0.0794677734375,0.06982421875,0.9964599609375,2.138783446955004,-2.2631529442337586,78.44004510243451,32.63328552246094,33.37554931640625,-56.75,114.75,24577.25,-0.06097560975609757,0.06097560975609757,0.06097560975609757
2021-10-25 20:39:17.334556,0.078857421875,0.06976318359375,0.99554443359375,2.685228794432031,-2.1567454880315733,78.45185855236748,32.65998840332031,33.3709716796875,-53.625,115.125,-16385.25,-0.09146341463414635,0.09146341463414635,0.0
2021-10-25 20:39:17.784392,0.0777587890625,0.06890869140625,0.99578857421875,3.075632877882198,-2.061329485988597,78.47574863477307,32.6519775390625,33.35418701171875,-56.5,111.25,-24576.25,-0.12195121951219513,0.030487804878048783,0.06097560975609757
2021-10-25 20:39:18.288393,0.07861328125,0.07012939453125,0.99542236328125,1.9108391692582938,-2.268876463585838,78.49208087510085,32.65998840332031,33.31756591796875,-56.875,111.5,24574.0,-0.06097560975609757,0.06097560975609757,0.06097560975609757
2021-10-25 20:39:18.736208,0.07855224609375,0.06915283203125,0.9954833984375,1.361605897148047,-2.3644466521927585,78.48761169975003,32.61726379394531,33.31756591796875,-56.25,112.625,32767.625,-0.06097560975609757,0.06097560975609757,0.030487804878048783
2021-10-25 20:39:19.199891,0.079345703125,0.070068359375,0.99627685546875,2.168004524117097,-2.2347132094838438,78.48415677059187,32.635955810546875,33.2916259765625,-56.875,112.125,-24575.5,-0.09146341463414635,0.0,0.0
2021-10-25 20:39:19.660855,0.07867431640625,0.0699462890625,0.99603271484375,2.661550768151905,-2.182643508715072,78.4973521820865,32.67066955566406,33.28094482421875,-59.5,113.875,-8194.25,-0.06097560975609757,0.030487804878048783,0.0
2021-10-25 20:39:20.107544,0.07855224609375,0.067626953125,0.9947509765625,3.050794872938483,-2.0860756622486543,78.51715469445075,32.65464782714844,33.28704833984375,-56.625,111.5,-24575.25,-0.030487804878048783,0.06097560975609757,-0.030487804878048783
2021-10-25 20:39:20.556707,0.0806884765625,0.07562255859375,0.99481201171875,3.4341713618545544,-2.062733629924193,78.53932179318468,32.65464782714844,33.26568603515625,-58.25,114.375,-24576.0,0.09146341463414635,-0.27439024390243905,-0.030487804878048783
2021-10-25 20:39:21.024822,0.07940673828125,0.0693359375,0.993896484375,2.021409179237182,-2.302897735659303,78.56111893692803,32.64930725097656,33.2061767578125,-57.625,109.5,32767.875,-0.06097560975609757,0.030487804878048783,0.0
2021-10-25 20:39:21.488538,0.079833984375,0.07037353515625,0.995361328125,2.6126897862492746,-2.19655508689398,78.5688435926908,32.65998840332031,33.1939697265625,-56.0,111.75,-16386.375,-0.09146341463414635,0.12195121951219513,-0.030487804878048783
2021-10-25 20:39:21.973323,0.0792236328125,0.06964111328125,0.99566650390625,2.9888670115065654,-2.1478211734402777,78.59071715820906,32.667999267578125,33.160400390625,-56.75,113.875,-8193.25,-0.09146341463414635,0.06097560975609757,0.0
2021-10-25 20:39:22.419786,0.07861328125,0.06964111328125,0.99566650390625,1.8563905056062548,-2.3121648972742372,78.6014906797121,32.66265869140625,33.148193359375,-60.625,112.625,24575.5,-0.09146341463414635,0.09146341463414635,-0.030487804878048783
2021-10-25 20:39:22.894798,0.07916259765625,0.06939697265625,0.99591064453125,2.4828616330136746,-2.20185622547531,78.61082967222896,32.678680419921875,33.15887451171875,-54.625,110.75,-16386.625,-0.09146341463414635,0.030487804878048783,0.06097560975609757
2021-10-25 20:39:23.343352,0.080078125,0.07012939453125,0.9959716796875,2.9496771856482655,-2.1221896046119735,78.62757965841132,32.65464782714844,33.1298828125,-57.625,112.0,-24576.25,-0.06097560975609757,0.06097560975609757,0.0
2021-10-25 20:39:23.845619,0.07855224609375,0.06964111328125,0.99603271484375,3.280679285345813,-2.044152591000496,78.6543899220491,32.67601013183594,33.13140869140625,-57.25,110.125,-24576.75,-0.06097560975609757,0.06097560975609757,0.030487804878048783
2021-10-25 20:39:24.293607,0.07977294921875,0.070068359375,0.99560546875,3.524964610318439,-2.0033057014131153,78.68367602433189,32.64396667480469,33.0963134765625,-58.5,108.0,-24579.0,-0.09146341463414635,0.12195121951219513,-0.030487804878048783
2021-10-25 20:39:24.834807,0.07977294921875,0.06982421875,0.994873046875,3.702927778357652,-1.972854323179189,78.7175934786747,32.64930725097656,33.09478759765625,-56.875,118.0,-24576.125,-0.09146341463414635,0.09146341463414635,-0.030487804878048783
2021-10-25 20:39:25.284534,0.0794677734375,0.06903076171875,0.994873046875,3.7689334698351966,-2.514836101240403,75.54191068576422,32.6519775390625,33.0810546875,-57.375,116.25,-4.875,-0.030487804878048783,0.030487804878048783,0.0
2021-10-25 20:39:25.763669,0.07940673828125,0.0693359375,0.99566650390625,2.1103283898340344,-2.629700778142428,75.5704276268936,32.66265869140625,33.04595947265625,-61.0,115.25,32765.5,-0.09146341463414635,0.0,0.0
2021-10-25 20:39:26.220226,0.07867431640625,0.06884765625,0.9959716796875,2.648569215225109,-2.358085678899989,75.58815918855113,32.667999267578125,33.05816650390625,-57.0,110.375,-8195.25,-0.030487804878048783,0.0,0.0
2021-10-25 20:39:26.679421,0.07928466796875,0.06793212890625,0.9957275390625,1.7105741460215733,-2.4627208466594053,75.59344582772401,32.65464782714844,33.0657958984375,-57.25,111.25,16383.375,-0.06097560975609757,0.0,0.030487804878048783
2021-10-25 20:39:27.127015,0.08013916015625,0.07025146484375,0.99554443359375,2.421645332208503,-2.2546814251684704,75.59805457039894,32.65464782714844,33.050537109375,-60.125,114.625,-24574.0,-0.09146341463414635,0.06097560975609757,0.0
2021-10-25 20:39:27.582372,0.07891845703125,0.06988525390625,0.99517822265625,2.885947100687351,-2.1116908952403164,75.61979405660401,32.667999267578125,33.0596923828125,-56.5,111.875,-16386.875,-0.06097560975609757,0.06097560975609757,0.06097560975609757
2021-10-25 20:39:28.036886,0.080322265625,0.0699462890625,0.99591064453125,3.180520679478285,-2.065366444610492,75.65007359364112,32.69203186035156,33.05206298828125,-57.875,113.25,-8196.875,-0.09146341463414635,0.0,0.030487804878048783
2021-10-25 20:39:28.588104,0.07965087890625,0.07049560546875,0.9954833984375,1.9663657727909705,-2.32689221949882,75.66365554755873,32.65464782714844,33.03985595703125,-56.75,114.0,24576.5,-0.09146341463414635,0.030487804878048783,0.0
2021-10-25 20:39:29.034418,0.0802001953125,0.07012939453125,0.99566650390625,2.5816845464006923,-2.1742915465641266,75.67423111529125,32.67066955566406,33.0230712890625,-58.375,113.375,-24577.125,-0.09146341463414635,0.06097560975609757,0.030487804878048783
2021-10-25 20:39:29.557885,0.07904052734375,0.0687255859375,0.99432373046875,2.995540957317346,-2.050325123749828,75.69562442810093,32.66265869140625,33.04595947265625,-52.75,115.125,-24576.375,-0.06097560975609757,0.09146341463414635,0.0
2021-10-25 20:39:30.004801,0.07916259765625,0.0699462890625,0.994873046875,3.288606229663006,-1.9836140400090878,75.72388483488409,32.64930725097656,33.062744140625,-60.125,112.25,-16383.75,-0.09146341463414635,0.06097560975609757,0.0
2021-10-25 20:39:30.490198,0.07891845703125,0.0697021484375,0.9952392578125,1.9849394314905318,-2.2840153486820416,75.74202975662008,32.68402099609375,33.0322265625,-56.5,110.0,32767.375,-0.09146341463414635,0.0,0.030487804878048783
2021-10-25 20:39:30.947070,0.07879638671875,0.0693359375,0.995849609375,1.3964283381600027,-2.4090635825932623,75.73946895196974,32.65464782714844,33.04595947265625,-54.5,109.875,32766.5,-0.12195121951219513,0.06097560975609757,0.06097560975609757
2021-10-25 20:39:31.398170,0.0794677734375,0.069091796875,0.99578857421875,2.158824715757827,-2.243321229673705,75.7402868710934,32.67601013183594,33.05511474609375,-58.0,114.875,-16385.875,-0.06097560975609757,0.030487804878048783,0.030487804878048783
2021-10-25 20:39:31.845924,0.07940673828125,0.0692138671875,0.99554443359375,2.638988123328236,-2.1593194295798632,75.75573654768509,32.6947021484375,33.06121826171875,-57.75,113.25,-8195.0,-0.09146341463414635,0.030487804878048783,0.0
2021-10-25 20:39:32.319293,0.07916259765625,0.06982421875,0.99560546875,2.99850371335914,-2.0864845709377895,75.7802319653464,32.70805358886719,33.0841064453125,-56.375,114.125,-8196.375,-0.09146341463414635,0.030487804878048783,0.0
2021-10-25 20:39:32.784825,0.0789794921875,0.0694580078125,0.99530029296875,3.2881816409577684,-2.000988368233479,75.80910223711852,32.678680419921875,33.06732177734375,-57.25,110.0,-16387.125,-0.12195121951219513,0.030487804878048783,0.0
2021-10-25 20:39:33.325128,0.07830810546875,0.068359375,0.99517822265625,3.494440466662731,-1.9226962624124504,75.8457973984867,32.68402099609375,33.09173583984375,-56.375,113.875,-24574.75,-0.12195121951219513,0.030487804878048783,0.06097560975609757
2021-10-25 20:39:33.771755,0.077880859375,0.070068359375,0.9951171875,3.6570163923017125,-1.8749270637253763,75.88122515184602,32.69737243652344,33.06732177734375,-59.75,113.375,-16385.25,-0.06097560975609757,0.09146341463414635,-0.030487804878048783
2021-10-25 20:39:34.240949,0.07879638671875,0.069091796875,0.99517822265625,3.7640270955091806,-1.8513603560383767,75.91965036868365,32.678680419921875,33.0841064453125,-57.25,110.75,-16384.125,-0.09146341463414635,0.09146341463414635,-0.030487804878048783
2021-10-25 20:39:34.698555,0.0792236328125,0.069091796875,0.99603271484375,3.8524888127970986,-1.830730691809291,75.96358189798994,32.68669128417969,33.09478759765625,-57.75,111.5,-24577.125,-0.06097560975609757,0.06097560975609757,0.06097560975609757
2021-10-25 20:39:35.165400,0.07867431640625,0.069580078125,0.99652099609375,3.8964642133215963,-1.843823525084826,76.00852412186627,32.67601013183594,33.1024169921875,-54.5,112.375,-8195.125,-0.06097560975609757,0.0,0.0
2021-10-25 20:39:35.617846,0.0794677734375,0.06976318359375,0.995849609375,3.917965761296453,-2.3950496598396978,73.44444679083739,32.64930725097656,33.0718994140625,-56.625,116.125,-4.25,-0.06097560975609757,0.030487804878048783,0.0
2021-10-25 20:39:36.071129,0.07861328125,0.0704345703125,0.9947509765625,3.9855904607182477,-2.108184838881732,73.50474994699648,32.68402099609375,33.06121826171875,-57.0,111.25,-8195.75,-0.06097560975609757,0.030487804878048783,0.0
2021-10-25 20:39:36.536155,0.0810546875,0.06982421875,0.9957275390625,4.028618877240766,-1.9516563738421404,73.56020392625386,32.68669128417969,33.09173583984375,-56.5,113.0,-16387.0,-0.12195121951219513,0.030487804878048783,0.030487804878048783
2021-10-25 20:39:37.087885,0.079833984375,0.070068359375,0.9947509765625,2.2916004467642717,-2.340695004341422,73.5884622838266,32.69203186035156,33.09173583984375,-57.5,111.875,32764.375,-0.09146341463414635,0.09146341463414635,0.0
2021-10-25 20:39:37.534531,0.0784912109375,0.0689697265625,0.9951171875,2.7987712355401704,-2.1226585694837734,73.6061672402754,32.67066955566406,33.1207275390625,-55.125,110.5,-24576.25,-0.09146341463414635,0.030487804878048783,0.0
2021-10-25 20:39:37.990665,0.0797119140625,0.06866455078125,0.99456787109375,3.1282866165757177,-2.007436404591039,73.63487660222364,32.67601013183594,33.0902099609375,-57.375,108.5,-16387.25,-0.06097560975609757,0.09146341463414635,0.030487804878048783
2021-10-25 20:39:38.438122,0.0787353515625,0.0693359375,0.99462890625,1.9281093657367256,-2.315770837976204,73.65073419531491,32.68402099609375,33.09783935546875,-54.75,114.0,32766.75,-0.030487804878048783,0.030487804878048783,0.06097560975609757
2021-10-25 20:39:38.906270,0.07928466796875,0.06976318359375,0.99505615234375,2.527127781122521,-2.145124368344155,73.6625741544476,32.67601013183594,33.10394287109375,-54.875,113.375,-16385.125,-0.06097560975609757,0.06097560975609757,0.030487804878048783
2021-10-25 20:39:39.352457,0.079345703125,0.07049560546875,0.9962158203125,2.9646995841127954,-2.0175625690614245,73.68301268063097,32.68402099609375,33.1085205078125,-54.5,114.625,-24577.75,-0.06097560975609757,0.030487804878048783,0.0
2021-10-25 20:39:39.803578,0.080078125,0.0699462890625,0.99627685546875,3.2683356527983376,-1.9387375308995303,73.70989424496373,32.68402099609375,33.08868408203125,-58.0,114.375,-24578.125,-0.030487804878048783,0.030487804878048783,-0.030487804878048783
2021-10-25 20:39:40.252732,0.07818603515625,0.06878662109375,0.99560546875,3.447007434479713,-2.541883081702693,71.38640228353374,32.66265869140625,33.0718994140625,-57.375,111.5,-7.625,-0.030487804878048783,0.030487804878048783,0.0
2021-10-25 20:39:40.703496,0.07965087890625,0.0692138671875,0.99591064453125,3.616881853929939,-2.186018098307121,71.44385497765073,32.69203186035156,33.0841064453125,-56.625,112.625,-8195.875,-0.030487804878048783,0.09146341463414635,0.06097560975609757
2021-10-25 20:39:41.179747,0.07928466796875,0.06951904296875,0.99627685546875,3.757614383580987,-1.9498034520840362,71.49040241403777,32.67066955566406,33.09478759765625,-56.5,111.25,-24578.5,-0.030487804878048783,0.030487804878048783,-0.030487804878048783
2021-10-25 20:39:41.626276,0.0794677734375,0.06982421875,0.99566650390625,2.194835684840756,-2.351289418317363,71.51355519622892,32.67066955566406,33.0718994140625,-58.625,111.25,32766.125,-0.030487804878048783,0.06097560975609757,0.030487804878048783
2021-10-25 20:39:42.124443,0.0791015625,0.06829833984375,0.99554443359375,1.4821865285989182,-2.5107342875430545,71.51347947653908,32.65464782714844,33.08563232421875,-54.875,113.25,32767.625,-0.09146341463414635,0.030487804878048783,0.06097560975609757
2021-10-25 20:39:42.589318,0.07977294921875,0.0699462890625,0.99542236328125,2.176142044207166,-2.2819774235789327,71.52168824471927,32.65998840332031,33.1085205078125,-55.125,112.0,-8195.625,-0.06097560975609757,0.06097560975609757,0.06097560975609757
2021-10-25 20:39:43.040044,0.07916259765625,0.06927490234375,0.9949951171875,2.6866083219759367,-2.092606362465096,71.53677852007016,32.6519775390625,33.111572265625,-58.75,112.875,-16385.625,-0.06097560975609757,0.06097560975609757,-0.030487804878048783
2021-10-25 20:39:43.496793,0.07940673828125,0.06927490234375,0.99432373046875,3.052256439613676,-1.959662540772151,71.5602238942223,32.61993408203125,33.123779296875,-57.75,110.125,-24578.625,-0.09146341463414635,0.030487804878048783,-0.030487804878048783
2021-10-25 20:39:43.949413,0.07861328125,0.0692138671875,0.99566650390625,3.3089760491793165,-1.8555934650863029,71.59179198712543,32.67066955566406,33.12835693359375,-58.0,111.625,-24576.875,-0.06097560975609757,0.06097560975609757,0.0
2021-10-25 20:39:44.398793,0.079833984375,0.0697021484375,0.99554443359375,2.0921078258576924,-2.240752322998984,71.60202770691535,32.63328552246094,33.14361572265625,-56.5,114.0,16384.125,-0.09146341463414635,0.09146341463414635,-0.030487804878048783
2021-10-25 20:39:44.858130,0.080322265625,0.06866455078125,0.9954833984375,2.6109643161641265,-2.0912428797370644,71.6164070190887,32.61192321777344,33.14208984375,-57.375,109.0,-16386.5,-0.12195121951219513,0.030487804878048783,0.0
2021-10-25 20:39:45.306879,0.07989501953125,0.06951904296875,0.995849609375,1.771170328387044,-2.349207078581042,71.6187629959298,32.65464782714844,33.14056396484375,-60.0,114.375,16384.125,-0.06097560975609757,0.030487804878048783,0.030487804878048783
2021-10-25 20:39:45.782837,0.07891845703125,0.06982421875,0.996337890625,2.4289291495793686,-2.1335616520770486,71.62454988395633,32.62794494628906,33.16802978515625,-59.5,110.25,-24576.25,-0.09146341463414635,0.06097560975609757,-0.030487804878048783
2021-10-25 20:39:46.231500,0.07989501953125,0.07012939453125,0.99664306640625,2.876380382113273,-2.0015283753738524,71.64396914174922,32.625274658203125,33.16650390625,-57.75,112.5,-24577.75,-0.09146341463414635,0.0,0.0
2021-10-25 20:39:46.730565,0.07916259765625,0.06842041015625,0.99505615234375,3.1751987679306106,-1.895009206359831,71.67551652716064,32.59056091308594,33.19244384765625,-55.125,113.125,-24578.25,-0.030487804878048783,0.06097560975609757,0.06097560975609757
2021-10-25 20:39:47.205139,0.0797119140625,0.069091796875,0.9959716796875,3.3827109101586466,-1.8365700944139893,71.7126630920275,32.63328552246094,33.17718505859375,-54.75,110.25,-16387.875,-0.09146341463414635,0.030487804878048783,0.06097560975609757
2021-10-25 20:39:47.659661,0.07861328125,0.06951904296875,0.99591064453125,2.0523816750329003,-2.249329896123916,71.72951448860562,32.60124206542969,33.20159912109375,-55.5,111.25,32766.0,-0.09146341463414635,0.030487804878048783,0.030487804878048783
2021-10-25 20:39:48.110752,0.07904052734375,0.06884765625,0.9949951171875,2.586232077921631,-2.084953706561108,71.74314000141877,32.56385803222656,33.20770263671875,-59.375,113.0,-16385.375,-0.09146341463414635,0.030487804878048783,0.0
2021-10-25 20:39:48.558958,0.07940673828125,0.0693359375,0.9949951171875,2.98199907944781,-1.9629396887419468,71.76426548449182,32.58522033691406,33.21685791015625,-55.125,110.875,-24576.5,-0.030487804878048783,0.0,-0.030487804878048783
2021-10-25 20:39:49.007487,0.07806396484375,0.0697021484375,0.9951171875,3.249404850958978,-1.8709674486554024,71.79760254470081,32.61192321777344,33.2183837890625,-59.25,113.125,-16383.875,-0.12195121951219513,0.0,0.06097560975609757
2021-10-25 20:39:49.500857,0.07977294921875,0.06988525390625,0.99554443359375,3.421651594499447,-1.8530004193347924,71.83602427437067,32.59056091308594,33.22601318359375,-59.125,108.0,-8194.375,-0.06097560975609757,0.030487804878048783,0.030487804878048783
2021-10-25 20:39:49.948207,0.07904052734375,0.0682373046875,0.99603271484375,3.5650669223272673,-1.784429586224094,71.87445895550762,32.61726379394531,33.251953125,-57.0,113.25,-24576.625,-0.06097560975609757,0.06097560975609757,0.0
2021-10-25 20:39:50.412014,0.0787353515625,0.07025146484375,0.99603271484375,3.6630920539924,-1.761870350856445,71.9181903572283,32.61192321777344,33.24127197265625,-55.375,114.375,-8194.625,-0.030487804878048783,0.09146341463414635,0.0
2021-10-25 20:39:50.860220,0.07989501953125,0.06951904296875,0.99554443359375,3.749599006779325,-1.740251832685887,71.96251323185881,32.56919860839844,33.25042724609375,-55.5,117.0,-16386.125,-0.030487804878048783,0.030487804878048783,0.030487804878048783
2021-10-25 20:39:51.313861,0.07928466796875,0.06915283203125,0.994140625,3.8167402986418844,-1.7158000942301321,72.00544291392413,32.56919860839844,33.2733154296875,-60.875,110.75,-24577.875,-0.06097560975609757,0.0,0.0
2021-10-25 20:39:51.773932,0.07940673828125,0.06939697265625,0.99603271484375,3.868571470084787,-1.696303711666402,72.04955561796851,32.57720947265625,33.28094482421875,-54.125,111.5,-24578.5,-0.06097560975609757,-0.030487804878048783,0.0
2021-10-25 20:39:52.288952,0.0792236328125,0.069580078125,0.99493408203125,3.879378673028297,-1.7084328957272843,72.09825549917481,32.55851745605469,33.31298828125,-57.875,115.0,-8193.75,-0.09146341463414635,0.09146341463414635,0.0
2021-10-25 20:39:52.736460,0.078857421875,0.06939697265625,0.99603271484375,3.906218829376788,-1.6877615341784464,72.14467379176925,32.55584716796875,33.31756591796875,-56.875,113.625,-16385.125,-0.09146341463414635,0.06097560975609757,0.0
2021-10-25 20:39:53.204544,0.08013916015625,0.07037353515625,0.997314453125,3.945496004609868,-1.6817310040726325,72.19016959428662,32.582550048828125,33.33282470703125,-56.375,116.25,-24576.25,-0.06097560975609757,0.06097560975609757,0.0
2021-10-25 20:39:53.655767,0.0792236328125,0.069580078125,0.9969482421875,3.939755522120414,-1.703290114183448,72.239189368899,32.57453918457031,33.32672119140625,-59.0,109.375,-8196.375,-0.030487804878048783,0.030487804878048783,0.0
2021-10-25 20:39:54.139978,0.0802001953125,0.0699462890625,0.9957275390625,3.961085612085333,-1.6999703929871817,72.28654853182834,32.57720947265625,33.33740234375,-56.625,114.875,-16387.75,-0.06097560975609757,0.06097560975609757,0.0
2021-10-25 20:39:54.588079,0.07977294921875,0.07086181640625,0.99603271484375,3.9885341000848906,-1.6932047454612569,72.33519137452025,32.56919860839844,33.36639404296875,-57.125,111.625,-16386.625,-0.06097560975609757,0.06097560975609757,0.030487804878048783
2021-10-25 20:39:55.052913,0.07958984375,0.0694580078125,0.9962158203125,2.367300115861654,-2.169211479444609,72.35886379215513,32.539825439453125,33.33282470703125,-56.625,111.625,16385.625,-0.06097560975609757,0.09146341463414635,0.030487804878048783
2021-10-25 20:39:55.500036,0.078857421875,0.069580078125,0.995849609375,2.831692252790988,-2.014863867828008,72.37744394836321,32.55851745605469,33.32672119140625,-59.125,116.125,-24577.875,-0.09146341463414635,0.12195121951219513,0.0
2021-10-25 20:39:56.004080,0.080078125,0.06884765625,0.99560546875,3.1475549663885753,-1.9273449110119838,72.40284765221872,32.52647399902344,33.3465576171875,-59.375,112.375,-24578.375,-0.09146341463414635,0.06097560975609757,-0.030487804878048783
2021-10-25 20:39:56.452935,0.08026123046875,0.0697021484375,0.99627685546875,3.3485382344970613,-1.9002655889026325,72.43969143989133,32.53448486328125,33.3892822265625,-58.125,110.375,-8195.375,-0.06097560975609757,0.06097560975609757,0.030487804878048783
2021-10-25 20:39:56.961639,0.07891845703125,0.069580078125,0.99627685546875,2.053154442153494,-2.2691060166425516,72.45425307393124,32.55851745605469,33.38775634765625,-56.0,115.375,24575.625,-0.12195121951219513,0.030487804878048783,0.0
2021-10-25 20:39:57.408649,0.08001708984375,0.06976318359375,0.9959716796875,1.451656091283815,-2.4531572817559932,72.45023856082915,32.50511169433594,33.404541015625,-52.75,116.375,32765.375,-0.06097560975609757,0.06097560975609757,0.030487804878048783
2021-10-25 20:39:57.882007,0.07928466796875,0.06890869140625,0.99566650390625,2.1912692666473133,-2.224842472533469,72.45383647268139,32.56385803222656,33.392333984375,-55.0,114.875,-16386.0,-0.12195121951219513,0.030487804878048783,0.030487804878048783
2021-10-25 20:39:58.334162,0.0791015625,0.06866455078125,0.9952392578125,2.645770891732349,-2.0996577712513145,72.47245667766713,32.539825439453125,33.38623046875,-54.625,110.75,-8195.125,-0.09146341463414635,0.0,0.0
2021-10-25 20:39:58.801674,0.08001708984375,0.07000732421875,0.99609375,3.035563859703511,-1.983470556307514,72.49859848335764,32.507781982421875,33.4320068359375,-57.875,110.625,-24576.0,-0.06097560975609757,0.030487804878048783,0.06097560975609757
2021-10-25 20:39:59.248506,0.07989501953125,0.07049560546875,0.9957275390625,1.9064681955285698,-2.321914528274961,72.51034244044023,32.518463134765625,33.428955078125,-58.375,111.5,32766.875,-0.09146341463414635,0.06097560975609757,0.030487804878048783
2021-10-25 20:39:59.701121,0.08013916015625,0.0704345703125,0.9959716796875,2.4641627645745956,-2.1814075008209977,72.52292013518563,32.48374938964844,33.43048095703125,-57.625,115.125,-8193.75,-0.09146341463414635,0.030487804878048783,0.0
2021-10-25 20:40:00.155403,0.0804443359375,0.07061767578125,0.99566650390625,2.920289833598744,-2.0439422305777293,72.54269484654105,32.475738525390625,33.404541015625,-61.125,113.875,-24579.25,-0.030487804878048783,0.030487804878048783,0.0
2021-10-25 20:40:00.678319,0.078857421875,0.07061767578125,0.99542236328125,3.2306141203661243,-1.9357689509688971,72.57178162599968,32.4810791015625,33.428955078125,-58.25,112.0,-16384.75,-0.030487804878048783,0.030487804878048783,0.0
2021-10-25 20:40:01.125986,0.0797119140625,0.07037353515625,0.99578857421875,1.9903617850089066,-2.2956313788892366,72.58537983679906,32.465057373046875,33.42437744140625,-58.125,114.75,32766.625,-0.09146341463414635,0.15243902439024393,0.0
2021-10-25 20:40:01.597834,0.0802001953125,0.07012939453125,0.99609375,1.4209274138371626,-2.4683886094512295,72.57852765948357,32.48908996582031,33.43658447265625,-56.25,113.5,32766.25,-0.06097560975609757,0.030487804878048783,0.0
2021-10-25 20:40:02.044523,0.07965087890625,0.06982421875,0.99652099609375,2.186179852630529,-2.236651280577634,72.57818817932991,32.44636535644531,33.45794677734375,-53.875,112.75,-16385.375,-0.09146341463414635,0.06097560975609757,-0.030487804878048783
2021-10-25 20:40:02.510045,0.079833984375,0.06951904296875,0.99530029296875,2.5844946828181627,-2.7500739196853528,70.30114951114521,32.45704650878906,33.4564208984375,-60.375,113.5,-3.0,-0.09146341463414635,0.12195121951219513,0.030487804878048783
2021-10-25 20:40:02.956775,0.07940673828125,0.06951904296875,0.9952392578125,3.0596150750613784,-2.2858468780464483,70.33242864420258,32.454376220703125,33.46710205078125,-55.0,113.625,-24577.25,-0.06097560975609757,0.12195121951219513,0.0
2021-10-25 20:40:03.409301,0.07965087890625,0.069580078125,0.9959716796875,3.3002509066207013,-2.0616658462579958,70.37616054747645,32.4383544921875,33.44879150390625,-59.125,112.125,-8195.5,-0.030487804878048783,0.06097560975609757,0.06097560975609757
2021-10-25 20:40:03.865514,0.0794677734375,0.06988525390625,0.99566650390625,3.4957703442847095,-1.8974717348072123,70.41657410077495,32.44636535644531,33.43353271484375,-56.75,113.875,-16387.25,-0.06097560975609757,0.030487804878048783,0.0
2021-10-25 20:40:04.325283,0.079345703125,0.06903076171875,0.99609375,3.617941532515311,-1.7945411500507829,70.46230183451728,32.4383544921875,33.465576171875,-56.5,111.375,-16384.875,-0.06097560975609757,0.06097560975609757,0.06097560975609757
2021-10-25 20:40:04.807899,0.07989501953125,0.0692138671875,0.99517822265625,3.6878540433245632,-2.3644362227112716,68.85226197567894,32.44903564453125,33.46099853515625,-56.125,110.25,-2.75,-0.06097560975609757,0.09146341463414635,0.030487804878048783
2021-10-25 20:40:05.256380,0.07965087890625,0.06939697265625,0.995849609375,3.767411700321295,-2.0280450391642653,68.91422524851464,32.40364074707031,33.4747314453125,-55.5,116.375,-8193.5,-0.06097560975609757,0.09146341463414635,0.0
2021-10-25 20:40:05.714337,0.08056640625,0.0697021484375,0.99591064453125,3.8414661328973057,-1.8293561494881088,68.9662591591019,32.44636535644531,33.46405029296875,-54.625,113.375,-24577.625,-0.09146341463414635,0.06097560975609757,0.0
2021-10-25 20:40:06.161698,0.0784912109375,0.06878662109375,0.99578857421875,2.239425922094102,-2.3074035039240117,68.98713080451576,32.4383544921875,33.4991455078125,-58.25,112.75,32766.375,-0.06097560975609757,0.09146341463414635,0.0
2021-10-25 20:40:06.613317,0.0789794921875,0.069580078125,0.99554443359375,2.728357384862789,-2.0695743310970713,69.00669669677576,32.44636535644531,33.47015380859375,-58.75,112.25,-16385.5,-0.06097560975609757,0.06097560975609757,0.0
2021-10-25 20:40:07.064372,0.079345703125,0.06982421875,0.99578857421875,3.0293845278438,-1.9401355290925266,69.0351084416128,32.45704650878906,33.48541259765625,-56.875,110.875,-8198.25,-0.06097560975609757,0.09146341463414635,-0.06097560975609757
2021-10-25 20:40:07.544308,0.080078125,0.06964111328125,0.99530029296875,3.2431753230849365,-1.859804972268376,69.07187833705864,32.41432189941406,33.52203369140625,-57.0,111.375,-8196.5,-0.06097560975609757,0.09146341463414635,0.0
2021-10-25 20:40:08.004838,0.08050537109375,0.07000732421875,0.99505615234375,2.011335320074488,-2.3127105656336147,69.08354312710266,32.454376220703125,33.526611328125,-58.125,110.375,32767.25,-0.12195121951219513,0.030487804878048783,0.0
2021-10-25 20:40:08.541878,0.0799560546875,0.06982421875,0.9954833984375,2.521616891655891,-2.1280654658189055,69.09788605482677,32.475738525390625,33.51593017578125,-57.875,114.875,-8195.25,-0.030487804878048783,0.030487804878048783,-0.06097560975609757
2021-10-25 20:40:08.988649,0.07952880859375,0.06964111328125,0.996337890625,2.935625341800373,-1.9523027517648317,69.12216551279822,32.44903564453125,33.526611328125,-57.875,114.0,-32766.875,-0.06097560975609757,0.030487804878048783,0.030487804878048783
2021-10-25 20:40:09.463473,0.08013916015625,0.06903076171875,0.9964599609375,1.8718621383397485,-2.3432369903786214,69.12845214331612,32.50511169433594,33.54949951171875,-56.125,113.25,32766.125,0.0,0.030487804878048783,-0.030487804878048783
2021-10-25 20:40:09.922250,0.079833984375,0.06927490234375,0.99713134765625,2.4158720350730736,-2.1497879731464407,69.14260931804392,32.53448486328125,33.51898193359375,-58.875,110.0,-8196.125,-0.030487804878048783,0.12195121951219513,0.0
2021-10-25 20:40:10.383828,0.07904052734375,0.0694580078125,0.9962158203125,2.7967466020746246,-2.0085691520133593,69.16879994959973,32.53181457519531,33.53271484375,-60.0,111.5,-8194.75,-0.06097560975609757,0.06097560975609757,0.030487804878048783
2021-10-25 20:40:10.830455,0.0789794921875,0.06829833984375,0.9959716796875,3.0870512312317366,-1.874877507433038,69.1972284645647,32.53448486328125,33.51593017578125,-58.625,112.875,-16387.25,-0.09146341463414635,0.15243902439024393,-0.030487804878048783
2021-10-25 20:40:11.282602,0.080322265625,0.06976318359375,0.9974365234375,3.3083615951906333,-1.8023855114028546,69.23277368811367,32.5238037109375,33.50677490234375,-58.0,112.375,-16385.5,-0.09146341463414635,0.09146341463414635,0.030487804878048783
2021-10-25 20:40:11.734172,0.07891845703125,0.06829833984375,0.9959716796875,3.4642927225815114,-1.7284061721597226,69.27316872840117,32.53181457519531,33.4930419921875,-58.5,113.5,-24578.5,-0.030487804878048783,0.030487804878048783,0.06097560975609757
2021-10-25 20:40:12.272545,0.07904052734375,0.06866455078125,0.99542236328125,3.569328327510783,-1.6812780971344374,69.31430623494248,32.4810791015625,33.46405029296875,-55.875,113.625,-16385.875,-0.09146341463414635,0.12195121951219513,0.0
2021-10-25 20:40:12.719011,0.07904052734375,0.06866455078125,0.9957275390625,2.141902339750168,-2.2048671321759823,69.33230746329693,32.518463134765625,33.48388671875,-57.0,111.75,32766.875,-0.09146341463414635,0.030487804878048783,0.030487804878048783
2021-10-25 20:40:13.212607,0.079345703125,0.06878662109375,0.99530029296875,1.54912046989969,-2.414214172312504,69.32695683967762,32.507781982421875,33.453369140625,-59.25,115.25,16384.25,-0.09146341463414635,0.09146341463414635,0.030487804878048783
2021-10-25 20:40:13.660023,0.07891845703125,0.0697021484375,0.99560546875,2.2772463781380567,-2.1584068888121264,69.33358380863353,32.47306823730469,33.43658447265625,-59.5,109.625,-24576.25,-0.030487804878048783,-0.030487804878048783,0.06097560975609757
2021-10-25 20:40:14.133896,0.08026123046875,0.0692138671875,0.996337890625,2.748642849938227,-1.9968408878025181,69.35186021491415,32.475738525390625,33.42132568359375,-56.0,114.0,-24577.625,-0.09146341463414635,0.06097560975609757,0.0
2021-10-25 20:40:14.580482,0.08001708984375,0.0701904296875,0.9954833984375,3.0805402263211232,-1.8836748096738385,69.38134185334546,32.475738525390625,33.44268798828125,-50.875,112.5,-16387.625,-0.030487804878048783,0.09146341463414635,0.030487804878048783
2021-10-25 20:40:15.031469,0.0794677734375,0.0699462890625,0.99615478515625,3.312486785371881,-1.8053906139508293,69.41644551078436,32.50511169433594,33.4442138671875,-58.875,114.5,-16384.5,0.0,0.0,0.030487804878048783
2021-10-25 20:40:15.478622,0.0814208984375,0.0689697265625,0.9959716796875,3.440642948024373,-1.7916279562010216,69.45760382482389,32.51579284667969,33.43353271484375,-57.375,112.5,-8194.25,-0.06097560975609757,0.030487804878048783,0.0
2021-10-25 20:40:15.930223,0.07989501953125,0.07012939453125,0.99700927734375,3.573484317839619,-1.7373219625799017,69.49772243404972,32.47306823730469,33.43353271484375,-59.75,109.5,-16385.875,-0.09146341463414635,0.030487804878048783,0.0
2021-10-25 20:40:16.408211,0.07989501953125,0.069580078125,0.9970703125,3.6664395472137388,-1.69515681078571,69.54047145918712,32.475738525390625,33.43353271484375,-58.125,109.25,-16385.125,-0.030487804878048783,0.09146341463414635,0.0
2021-10-25 20:40:16.854756,0.0806884765625,0.06915283203125,0.995849609375,2.1877283571506765,-2.239261289321383,69.5584762415259,32.47306823730469,33.4228515625,-57.875,114.25,32766.875,-0.030487804878048783,-0.030487804878048783,0.0
2021-10-25 20:40:17.325957,0.0797119140625,0.06982421875,0.99578857421875,2.704517642227012,-2.0396955073118987,69.57510457443988,32.497100830078125,33.42132568359375,-57.375,113.625,-24576.25,-0.06097560975609757,0.09146341463414635,0.0
2021-10-25 20:40:17.775587,0.07952880859375,0.069091796875,0.99603271484375,2.98587900972845,-2.5896401490040155,68.02393153490807,32.48374938964844,33.43353271484375,-58.125,111.125,-4.125,-0.030487804878048783,0.09146341463414635,0.030487804878048783
2021-10-25 20:40:18.234187,0.07904052734375,0.07025146484375,0.99542236328125,3.3076325165624767,-2.1592294092981366,68.06734589862498,32.5238037109375,33.4320068359375,-59.75,110.625,-16387.125,-0.09146341463414635,0.06097560975609757,0.030487804878048783
2021-10-25 20:40:18.684194,0.07977294921875,0.0701904296875,0.99591064453125,3.498389015151456,-1.923206239116528,68.11406825658285,32.47306823730469,33.4228515625,-61.125,111.125,-16385.5,-0.09146341463414635,0.030487804878048783,0.06097560975609757
2021-10-25 20:40:19.136629,0.08001708984375,0.0692138671875,0.9947509765625,3.6195349467906364,-1.7714468081373933,68.15596179108982,32.43034362792969,33.404541015625,-55.125,115.0,-24576.75,-0.12195121951219513,0.12195121951219513,-0.06097560975609757
2021-10-25 20:40:19.599774,0.07867431640625,0.07012939453125,0.9945068359375,3.7073631518788,-2.354554340367563,67.09389346306905,32.44636535644531,33.4136962890625,-56.5,112.125,-4.25,-0.06097560975609757,0.06097560975609757,0.0
2021-10-25 20:40:20.046673,0.0792236328125,0.06951904296875,0.99481201171875,3.7695808288912303,-2.821477521478539,66.04906082555601,32.433013916015625,33.42742919921875,-58.875,112.0,-4.375,-0.06097560975609757,0.09146341463414635,0.030487804878048783
2021-10-25 20:40:20.530878,0.079345703125,0.06976318359375,0.9959716796875,3.850899053814325,-2.21872430327197,66.1260862818922,32.46238708496094,33.43505859375,-59.0,113.0,-8195.5,-0.06097560975609757,0.12195121951219513,0.0
2021-10-25 20:40:20.977549,0.078857421875,0.06903076171875,0.99609375,3.8936015555336803,-1.8598438482903277,66.18747714673904,32.497100830078125,33.41522216796875,-55.625,113.5,-24580.125,-0.09146341463414635,0.06097560975609757,0.0
2021-10-25 20:40:21.478051,0.07989501953125,0.06939697265625,0.9962158203125,2.2831817369013625,-2.389778084196247,66.20676396314832,32.44636535644531,33.43353271484375,-57.125,115.875,32767.5,-0.06097560975609757,0.030487804878048783,0.0
2021-10-25 20:40:21.957587,0.08001708984375,0.07061767578125,0.99609375,2.7226762322335114,-2.113539441888571,66.23251604595909,32.44636535644531,33.4381103515625,-56.625,109.375,-8195.0,-0.12195121951219513,0.06097560975609757,0.0
2021-10-25 20:40:22.404024,0.07952880859375,0.06915283203125,0.99615478515625,3.051856293443748,-1.8990098917373548,66.26399962414253,32.47039794921875,33.4442138671875,-57.0,114.75,-24577.0,-0.09146341463414635,0.06097560975609757,0.030487804878048783
2021-10-25 20:40:22.863946,0.078857421875,0.0692138671875,0.99603271484375,3.2756506041017475,-1.7544691228250586,66.29613708020749,32.44636535644531,33.45489501953125,-58.0,110.0,-24576.5,-0.06097560975609757,0.09146341463414635,-0.06097560975609757
2021-10-25 20:40:23.323421,0.07928466796875,0.068359375,0.9962158203125,2.031103472241029,-2.269595739760238,66.30707755225392,32.41432189941406,33.447265625,-57.5,112.125,32767.875,-0.09146341463414635,0.030487804878048783,0.0
2021-10-25 20:40:23.779496,0.08074951171875,0.07073974609375,0.995849609375,1.475112473824398,-2.5260233371682714,66.29887655483688,32.433013916015625,33.4716796875,-55.75,114.375,32766.5,-0.09146341463414635,0.06097560975609757,0.0
2021-10-25 20:40:24.230616,0.080322265625,0.070556640625,0.9954833984375,2.2395002382832883,-2.1962810538922497,66.30099656703409,32.44636535644531,33.46405029296875,-56.75,113.625,-24577.5,-0.09146341463414635,0.09146341463414635,-0.030487804878048783
2021-10-25 20:40:24.677690,0.079833984375,0.06976318359375,0.9957275390625,2.6250368758453555,-2.7115392464723147,65.7119898809838,32.41432189941406,33.4716796875,-55.75,112.5,-3.75,-0.030487804878048783,0.12195121951219513,-0.06097560975609757
2021-10-25 20:40:25.154252,0.0794677734375,0.0704345703125,0.99658203125,1.6691581952766263,-2.8293869812852286,65.71031162109567,32.433013916015625,33.47625732421875,-59.25,113.875,32767.75,-0.06097560975609757,0.06097560975609757,-0.030487804878048783
2021-10-25 20:40:25.603954,0.0792236328125,0.06951904296875,0.99609375,2.317469088558046,-2.3651584730292328,65.72378260290576,32.42767333984375,33.47015380859375,-55.875,110.625,-8194.75,-0.15243902439024393,0.0,-0.030487804878048783
2021-10-25 20:40:26.110327,0.0792236328125,0.0694580078125,0.996337890625,2.7745031859448246,-2.0549895255913735,65.74937588905374,32.422332763671875,33.48846435546875,-53.875,110.5,-16385.125,-0.09146341463414635,0.030487804878048783,0.030487804878048783
2021-10-25 20:40:26.557251,0.0797119140625,0.06982421875,0.99639892578125,3.0776890609322995,-1.869555533377536,65.78121074993084,32.38494873046875,33.49151611328125,-55.5,115.375,-16384.375,-0.06097560975609757,0.0,0.0
2021-10-25 20:40:27.057783,0.0792236328125,0.06976318359375,0.996337890625,3.286182391690719,-1.742299821545041,65.81349654802324,32.44636535644531,33.502197265625,-57.25,112.25,-16386.0,-0.030487804878048783,0.06097560975609757,-0.09146341463414635
2021-10-25 20:40:27.504791,0.07904052734375,0.07037353515625,0.99700927734375,2.06292808889414,-2.260907672173132,65.82315682310252,32.41432189941406,33.52203369140625,-60.5,114.25,32767.125,-0.12195121951219513,0.09146341463414635,0.0
2021-10-25 20:40:27.962382,0.08001708984375,0.06878662109375,0.9969482421875,2.585894199330638,-2.0204915976379354,65.83794635629302,32.390289306640625,33.5235595703125,-56.75,112.75,-24578.0,-0.09146341463414635,0.06097560975609757,-0.030487804878048783
2021-10-25 20:40:28.411242,0.0791015625,0.0704345703125,0.9962158203125,2.9435659104201006,-1.8553813221244713,65.86629229812847,32.42767333984375,33.526611328125,-55.625,114.75,-16387.25,-0.06097560975609757,0.09146341463414635,0.030487804878048783
2021-10-25 20:40:28.861328,0.0789794921875,0.06951904296875,0.9957275390625,1.905660448566926,-2.308206670227224,65.87193542278919,32.39830017089844,33.53729248046875,-59.25,113.375,32766.5,-0.06097560975609757,0.030487804878048783,0.0
2021-10-25 20:40:29.325512,0.080322265625,0.069091796875,0.99554443359375,2.359403343182795,-2.8237837722169545,65.24473783720049,32.34222412109375,33.53118896484375,-55.625,109.0,-5.5,-0.06097560975609757,0.0,0.06097560975609757
2021-10-25 20:40:29.772273,0.0804443359375,0.07037353515625,0.99700927734375,2.8211241589197633,-2.32578592553728,65.27972320133999,32.368927001953125,33.5540771484375,-56.875,109.375,-8194.5,-0.06097560975609757,0.030487804878048783,0.030487804878048783
2021-10-25 20:40:30.262881,0.0811767578125,0.07025146484375,0.9962158203125,3.1574193497536416,-2.0093140409243606,65.3148108788629,32.39830017089844,33.5845947265625,-57.5,110.5,-24578.25,-0.06097560975609757,0.09146341463414635,0.0
2021-10-25 20:40:30.718707,0.08038330078125,0.07025146484375,0.99609375,3.369537432478968,-1.8108954352882254,65.3557239768807,32.39830017089844,33.57696533203125,-58.5,111.0,-24578.0,-0.09146341463414635,0.09146341463414635,0.030487804878048783
2021-10-25 20:40:31.170627,0.07940673828125,0.06915283203125,0.99639892578125,3.4976267820564964,-1.6784727858558899,65.39941012231071,32.37159729003906,33.57086181640625,-57.125,110.625,-24576.25,-0.06097560975609757,0.06097560975609757,0.030487804878048783
2021-10-25 20:40:31.626515,0.07879638671875,0.069091796875,0.99627685546875,3.5804268559037866,-1.5889065606458943,65.44300714380091,32.36091613769531,33.6181640625,-58.375,116.5,-24578.375,-0.09146341463414635,0.09146341463414635,0.0
2021-10-25 20:40:32.073877,0.07952880859375,0.06927490234375,0.99560546875,3.6321866865865116,-1.5461932732066221,65.48843180209276,32.3529052734375,33.59375,-52.5,112.25,-16387.125,-0.09146341463414635,0.09146341463414635,0.0
2021-10-25 20:40:32.521694,0.080810546875,0.0704345703125,0.9964599609375,2.220205272781545,-2.197113502357813,65.50504158834181,32.35557556152344,33.599853515625,-57.25,110.75,32766.625,-0.09146341463414635,0.09146341463414635,0.06097560975609757
2021-10-25 20:40:33.007458,0.08038330078125,0.07000732421875,0.99688720703125,2.6879750221176875,-1.9880808697739603,65.52517605308687,32.368927001953125,33.58306884765625,-57.75,114.5,-16388.375,-0.06097560975609757,0.06097560975609757,0.0
2021-10-25 20:40:33.454847,0.080078125,0.07037353515625,0.99737548828125,2.975707244023731,-1.8667522432171935,65.55428169139579,32.34489440917969,33.575439453125,-58.125,111.75,-8194.375,-0.09146341463414635,0.0,-0.06097560975609757
2021-10-25 20:40:33.919348,0.07952880859375,0.069091796875,0.9959716796875,3.19828874312445,-1.7489661411385093,65.59189820437669,32.37159729003906,33.57391357421875,-55.25,111.25,-16384.5,-0.09146341463414635,0.06097560975609757,0.06097560975609757
2021-10-25 20:40:34.368122,0.07916259765625,0.0703125,0.9971923828125,3.3442523621022,-1.6768304527770386,65.63560258514867,32.34489440917969,33.58917236328125,-55.375,116.125,-8194.75,-0.030487804878048783,0.06097560975609757,0.030487804878048783
2021-10-25 20:40:34.822305,0.0804443359375,0.06939697265625,0.9974365234375,3.46456004111777,-1.6289555789231183,65.67330939714316,32.36358642578125,33.59832763671875,-55.0,110.75,-16388.375,-0.030487804878048783,0.06097560975609757,-0.06097560975609757
2021-10-25 20:40:35.275355,0.0794677734375,0.0684814453125,0.9947509765625,3.5414440842553296,-1.5883809935229927,65.71619985264414,32.3529052734375,33.61358642578125,-58.5,113.875,-16386.75,-0.030487804878048783,0.030487804878048783,0.0
2021-10-25 20:40:35.806445,0.07916259765625,0.0693359375,0.99560546875,2.194569900785848,-2.18304237992446,65.72847879019803,32.379608154296875,33.63189697265625,-55.875,114.75,24576.375,-0.06097560975609757,0.06097560975609757,0.0
2021-10-25 20:40:36.254148,0.07965087890625,0.0692138671875,0.99530029296875,1.5624490843589496,-2.4620575107350704,65.7242623263495,32.37693786621094,33.587646484375,-59.875,112.125,24574.875,-0.030487804878048783,0.09146341463414635,0.030487804878048783
2021-10-25 20:40:36.720485,0.0782470703125,0.06903076171875,0.996337890625,2.2444206200420633,-2.137604841020998,65.73309597878506,32.411651611328125,33.61358642578125,-55.125,113.0,-16388.375,-0.12195121951219513,0.09146341463414635,0.030487804878048783
2021-10-25 20:40:37.172244,0.07855224609375,0.06817626953125,0.99468994140625,2.6936439502155918,-1.929452599993665,65.74964416986651,32.36358642578125,33.6029052734375,-56.5,106.5,-24578.625,-0.12195121951219513,0.06097560975609757,-0.06097560975609757
2021-10-25 20:40:37.643539,0.0797119140625,0.06890869140625,0.99664306640625,2.9695736104117616,-2.505277696623602,65.3053744563564,32.41432189941406,33.6090087890625,-55.125,111.375,-6.25,-0.06097560975609757,0.09146341463414635,0.030487804878048783
2021-10-25 20:40:38.090089,0.07965087890625,0.06939697265625,0.9959716796875,3.2813497226268837,-2.071418223137636,65.34667548965788,32.39830017089844,33.59832763671875,-58.875,114.0,-32766.375,-0.09146341463414635,0.030487804878048783,0.0
2021-10-25 20:40:38.547962,0.07965087890625,0.07025146484375,0.99560546875,3.4535956966981067,-1.8314142478471171,65.3931939607371,32.3956298828125,33.6029052734375,-54.625,115.125,-16385.0,-0.15243902439024393,0.030487804878048783,0.030487804878048783
2021-10-25 20:40:39.001168,0.079833984375,0.069580078125,0.99517822265625,2.1184330086932768,-2.34552823953601,65.40423716110004,32.38494873046875,33.599853515625,-56.25,111.75,32765.0,-0.030487804878048783,0.12195121951219513,-0.030487804878048783
2021-10-25 20:40:39.499789,0.08013916015625,0.07037353515625,0.99664306640625,2.655614337432001,-2.0597669089015453,65.4219342722224,32.37159729003906,33.6334228515625,-57.0,114.375,-24578.375,-0.06097560975609757,0.0,0.0
2021-10-25 20:40:39.947466,0.0792236328125,0.0697021484375,0.99652099609375,2.9864304617156043,-1.8703954845707984,65.45257707048914,32.40364074707031,33.6090087890625,-55.375,111.25,-16384.375,-0.09146341463414635,0.030487804878048783,0.030487804878048783
2021-10-25 20:40:40.465032,0.080322265625,0.0699462890625,0.9957275390625,3.203727930172767,-2.4537046201800403,64.91807032616371,32.3956298828125,33.60748291015625,-57.0,112.125,-2.0,-0.09146341463414635,0.030487804878048783,0.030487804878048783
2021-10-25 20:40:40.914018,0.0787353515625,0.0682373046875,0.994873046875,3.4236212790328278,-2.012533130003991,64.96848054601288,32.3956298828125,33.57391357421875,-57.375,115.625,-24577.625,-0.06097560975609757,0.09146341463414635,0.030487804878048783
2021-10-25 20:40:41.378448,0.08056640625,0.07025146484375,0.99652099609375,3.5228978843776786,-1.8157416020804835,65.02230864529287,32.40364074707031,33.57391357421875,-60.0,116.875,-8195.625,-0.06097560975609757,0.06097560975609757,0.030487804878048783
2021-10-25 20:40:41.828155,0.0791015625,0.0693359375,0.9962158203125,3.6108031548271504,-1.660652062950556,65.06720751316091,32.34489440917969,33.587646484375,-58.75,112.875,-24576.625,-0.09146341463414635,0.06097560975609757,-0.030487804878048783
2021-10-25 20:40:42.301771,0.07952880859375,0.06951904296875,0.99603271484375,3.659888053056221,-1.5804460076152471,65.11601136546885,32.379608154296875,33.575439453125,-58.875,112.125,-16384.875,-0.06097560975609757,0.12195121951219513,0.030487804878048783
2021-10-25 20:40:42.750752,0.07977294921875,0.0706787109375,0.99615478515625,3.71225664189483,-1.528627731927193,65.1617723905601,32.36358642578125,33.59222412109375,-55.75,113.75,-24579.25,-0.12195121951219513,0.12195121951219513,0.0
2021-10-25 20:40:43.214745,0.07989501953125,0.06964111328125,0.99444580078125,3.7398729465288603,-1.5052699211791685,65.20789098331318,32.38761901855469,33.5784912109375,-56.75,113.875,-24578.125,-0.06097560975609757,0.030487804878048783,0.0
2021-10-25 20:40:43.671109,0.0802001953125,0.06951904296875,0.99591064453125,3.753888289657696,-1.4903804703797288,65.2544740467989,32.390289306640625,33.5784912109375,-56.25,112.75,-24578.25,-0.12195121951219513,0.09146341463414635,0.0
2021-10-25 20:40:44.122354,0.08001708984375,0.06884765625,0.99627685546875,2.2579711966655283,-2.1711212183733766,65.26965901463925,32.411651611328125,33.59375,-57.125,111.75,32765.5,-0.030487804878048783,0.0,0.0
2021-10-25 20:40:44.578367,0.080078125,0.0692138671875,0.995849609375,2.718636534825289,-1.956330931308589,65.2898075016554,32.379608154296875,33.5906982421875,-57.375,113.25,-24575.25,-0.06097560975609757,0.09146341463414635,0.0
2021-10-25 20:40:45.030014,0.07916259765625,0.06951904296875,0.99554443359375,1.826031345964314,-2.3529267418036524,65.29302484204705,32.37159729003906,33.58154296875,-57.0,114.75,24576.25,-0.06097560975609757,0.06097560975609757,0.030487804878048783
2021-10-25 20:40:45.490135,0.08001708984375,0.06915283203125,0.99578857421875,2.417318541584341,-2.088237860837458,65.30400927468514,32.37693786621094,33.56781005859375,-55.25,110.25,-16387.125,-0.06097560975609757,0.030487804878048783,-0.030487804878048783
2021-10-25 20:40:45.938896,0.08013916015625,0.06915283203125,0.9962158203125,1.6574437923022236,-2.4354127619979815,65.30256055389722,32.40364074707031,33.6029052734375,-55.75,113.625,32767.75,-0.030487804878048783,0.09146341463414635,0.0
2021-10-25 20:40:46.418836,0.07940673828125,0.06884765625,0.99566650390625,1.2550943485571433,-2.6072915739979647,65.2885366519878,32.37159729003906,33.58001708984375,-58.75,109.625,32767.375,-0.09146341463414635,0.06097560975609757,0.0
2021-10-25 20:40:46.867751,0.0794677734375,0.07049560546875,0.99609375,1.0576574584781533,-2.7047362181833,65.26302062824931,32.411651611328125,33.599853515625,-57.375,115.625,32767.125,-0.030487804878048783,0.030487804878048783,-0.06097560975609757
2021-10-25 20:40:47.335402,0.07958984375,0.0697021484375,0.9954833984375,1.8657718817419946,-2.3509231711749194,65.2617692691234,32.40631103515625,33.58612060546875,-62.5,114.875,-8196.0,-0.09146341463414635,0.0,0.0
2021-10-25 20:40:47.782340,0.07940673828125,0.0693359375,0.99542236328125,2.478801997319519,-2.0604016903710183,65.2766086672506,32.390289306640625,33.58917236328125,-57.5,109.875,-32766.625,0.0,0.09146341463414635,0.06097560975609757
2021-10-25 20:40:48.235252,0.0802001953125,0.06951904296875,0.99566650390625,2.8145152086189076,-1.9218239454956196,65.30780970923192,32.422332763671875,33.60595703125,-59.625,111.75,-8194.625,-0.09146341463414635,0.06097560975609757,0.06097560975609757
2021-10-25 20:40:48.685921,0.0792236328125,0.06915283203125,0.99658203125,1.9036559690223789,-2.317565236792514,65.30839808109646,32.36091613769531,33.612060546875,-55.0,113.75,16383.625,-0.09146341463414635,0.09146341463414635,-0.030487804878048783
2021-10-25 20:40:49.136879,0.07952880859375,0.070556640625,0.9962158203125,1.4096135943288226,-2.543244649247944,65.29638915904161,32.422332763671875,33.58612060546875,-57.0,110.25,32767.25,-0.09146341463414635,0.09146341463414635,-0.030487804878048783
2021-10-25 20:40:49.616840,0.07958984375,0.0693359375,0.99688720703125,2.1531305975749078,-2.200918379302235,65.30196260277286,32.42767333984375,33.5845947265625,-56.375,113.375,-16388.125,-0.09146341463414635,0.06097560975609757,0.030487804878048783
2021-10-25 20:40:50.063572,0.0806884765625,0.06976318359375,0.9970703125,1.5491673524822824,-2.4874891981107643,65.29527444161711,32.422332763671875,33.58917236328125,-59.625,116.25,24575.625,-0.09146341463414635,0.06097560975609757,0.0
2021-10-25 20:40:50.567035,0.07916259765625,0.06964111328125,0.99603271484375,2.2686499036534977,-2.150562698961074,65.30116615963834,32.39830017089844,33.5968017578125,-58.125,113.625,-24577.75,-0.06097560975609757,0.06097560975609757,0.0
2021-10-25 20:40:51.058414,0.079833984375,0.0703125,0.9954833984375,1.5923369512515049,-2.4624204463596784,65.2967881954224,32.42767333984375,33.5906982421875,-56.25,111.375,32766.625,-0.15243902439024393,0.09146341463414635,0.0
2021-10-25 20:40:51.509455,0.07940673828125,0.06915283203125,0.996826171875,2.2961704763359507,-2.129883244004666,65.30485559352192,32.422332763671875,33.5479736328125,-57.375,116.0,-32766.75,-0.12195121951219513,0.09146341463414635,0.030487804878048783
2021-10-25 20:40:51.959402,0.0797119140625,0.070068359375,0.99615478515625,2.736109326461714,-1.940425541165495,65.32616160556377,32.42767333984375,33.5662841796875,-56.75,113.75,-16385.25,-0.06097560975609757,0.0,0.0
2021-10-25 20:40:52.409540,0.0789794921875,0.0694580078125,0.99664306640625,3.0306587775557015,-1.7986040844404565,65.35466544348216,32.4383544921875,33.5235595703125,-57.375,113.875,-16384.875,-0.06097560975609757,0.030487804878048783,-0.030487804878048783
2021-10-25 20:40:52.861850,0.07891845703125,0.06854248046875,0.9962158203125,1.9370088532106733,-2.287185367024769,65.36463605222352,32.4383544921875,33.526611328125,-56.75,109.875,32766.5,-0.030487804878048783,0.0,0.06097560975609757
2021-10-25 20:40:53.362451,0.079833984375,0.06982421875,0.99566650390625,2.5226097440419015,-2.030065950303455,65.3774878558966,32.46238708496094,33.52508544921875,-58.125,112.625,-32766.5,-0.06097560975609757,0.09146341463414635,0.0
2021-10-25 20:40:53.808853,0.0802001953125,0.06988525390625,0.9962158203125,2.886312827496544,-1.878244757196704,65.40308970830317,32.454376220703125,33.54034423828125,-59.125,113.25,-16388.875,-0.09146341463414635,0.06097560975609757,0.0
2021-10-25 20:40:54.307256,0.078857421875,0.0694580078125,0.99700927734375,3.1465442991733004,-1.7442574937222879,65.4346966922694,32.46238708496094,33.5205078125,-58.25,112.625,-24578.375,-0.09146341463414635,0.09146341463414635,0.0
2021-10-25 20:40:54.802314,0.0792236328125,0.06939697265625,0.99737548828125,2.061287724438251,-2.227910226253987,65.43916004592027,32.45704650878906,33.51287841796875,-59.875,111.0,16384.0,-0.030487804878048783,0.06097560975609757,-0.030487804878048783
2021-10-25 20:40:55.249590,0.079833984375,0.06964111328125,0.9971923828125,2.5900986489012787,-2.0004388667853257,65.4534894686508,32.46238708496094,33.50372314453125,-55.75,115.875,-24576.5,-0.06097560975609757,-0.030487804878048783,-0.030487804878048783
2021-10-25 20:40:55.717410,0.07958984375,0.0697021484375,0.9976806640625,1.7440915732252387,-2.3859575884442874,65.45561701184417,32.47306823730469,33.51287841796875,-57.75,112.0,32766.0,-0.06097560975609757,0.0,0.030487804878048783
2021-10-25 20:40:56.165394,0.0799560546875,0.0701904296875,0.99652099609375,2.3217880146893393,-2.1340452820693643,65.4666092728083,32.47306823730469,33.49456787109375,-54.75,113.875,-8195.0,-0.09146341463414635,0.06097560975609757,-0.06097560975609757
2021-10-25 20:40:56.616731,0.0794677734375,0.06982421875,0.9959716796875,1.6134990143895418,-2.4525650528938594,65.46607694334656,32.45704650878906,33.50067138671875,-57.625,112.375,32766.0,-0.09146341463414635,0.0,0.06097560975609757
2021-10-25 20:40:57.065541,0.079833984375,0.068359375,0.9947509765625,2.2690507699840077,-2.15562080516823,65.47739641055483,32.47306823730469,33.48388671875,-59.625,114.25,-16385.375,-0.09146341463414635,0.030487804878048783,0.06097560975609757
2021-10-25 20:40:57.520177,0.08074951171875,0.0706787109375,0.99560546875,2.661063240821541,-2.69528183666856,64.88830666977468,32.44102478027344,33.4930419921875,-57.0,110.875,-4.375,-0.030487804878048783,0.09146341463414635,-0.030487804878048783
2021-10-25 20:40:57.997336,0.08001708984375,0.06842041015625,0.99530029296875,2.9365830555148724,-3.106150164220893,64.55409014825662,32.507781982421875,33.50067138671875,-56.625,112.875,-4.75,-0.06097560975609757,0.09146341463414635,0.030487804878048783
2021-10-25 20:40:58.447654,0.07861328125,0.068603515625,0.99462890625,3.311037789503932,-2.359188521467883,64.60756797472288,32.465057373046875,33.4991455078125,-57.125,117.0,-24576.75,-0.09146341463414635,0.06097560975609757,0.030487804878048783
2021-10-25 20:40:58.968572,0.07958984375,0.06884765625,0.99530029296875,1.9991355069657808,-2.6712698257865797,64.62060055002739,32.5238037109375,33.49456787109375,-55.5,116.125,32767.75,-0.06097560975609757,0.06097560975609757,0.030487804878048783
2021-10-25 20:40:59.443537,0.07891845703125,0.07025146484375,0.99432373046875,2.6144378486655455,-2.2040814977290504,64.63884700750191,32.4810791015625,33.4808349609375,-55.75,112.875,-24576.375,-0.06097560975609757,0.09146341463414635,0.0
2021-10-25 20:40:59.894603,0.07965087890625,0.06927490234375,0.9952392578125,2.925612563747,-1.9616999426783033,64.67481722635415,32.47039794921875,33.477783203125,-55.625,111.625,-8193.875,-0.06097560975609757,0.12195121951219513,0.030487804878048783
2021-10-25 20:41:00.347039,0.07916259765625,0.069580078125,0.9957275390625,3.1673501299761386,-1.7859445040730597,64.71160373706395,32.465057373046875,33.47015380859375,-56.0,112.75,-16386.0,-0.15243902439024393,0.09146341463414635,0.030487804878048783
2021-10-25 20:41:00.820207,0.07855224609375,0.069580078125,0.99517822265625,2.0323992568677474,-2.277722869662242,64.718726821708,32.44903564453125,33.46405029296875,-59.25,111.25,24574.5,-0.030487804878048783,0.09146341463414635,0.0
2021-10-25 20:41:01.268194,0.07989501953125,0.06829833984375,0.9947509765625,1.5838067105631388,-2.4643469707466115,64.70471414602844,32.475738525390625,33.45947265625,-60.125,111.75,8193.0,-0.09146341463414635,0.09146341463414635,0.0
2021-10-25 20:41:01.739059,0.07904052734375,0.06939697265625,0.99505615234375,2.107126207280278,-2.9222276177154245,64.21675349033461,32.45704650878906,33.45947265625,-58.25,111.875,-4.5,-0.09146341463414635,0.06097560975609757,-0.030487804878048783
2021-10-25 20:41:02.188204,0.07891845703125,0.06890869140625,0.9951171875,1.4110476893987642,-2.9394712028346026,64.20499158023745,32.433013916015625,33.50372314453125,-56.25,112.75,24576.75,-0.030487804878048783,0.12195121951219513,-0.030487804878048783
2021-10-25 20:41:02.710414,0.080078125,0.07000732421875,0.99615478515625,2.2226811098398893,-2.3878490302575375,64.21309381727275,32.4810791015625,33.49761962890625,-55.0,114.375,-16384.125,-0.06097560975609757,0.09146341463414635,0.030487804878048783
2021-10-25 20:41:03.157656,0.07958984375,0.0693359375,0.99627685546875,2.7155817131467495,-2.051528814497797,64.23483488715513,32.4810791015625,33.502197265625,-56.625,111.75,-24577.25,-0.09146341463414635,0.06097560975609757,0.0
2021-10-25 20:41:03.666287,0.080078125,0.0697021484375,0.99639892578125,1.8618098855483685,-2.416219322985235,64.23617325417044,32.507781982421875,33.50677490234375,-54.5,116.25,16386.25,-0.06097560975609757,0.06097560975609757,0.030487804878048783
2021-10-25 20:41:04.122190,0.079833984375,0.07037353515625,0.9952392578125,2.4813713163693674,-2.091172792560635,64.24749907632639,32.48374938964844,33.48846435546875,-54.375,110.0,-24575.5,-0.06097560975609757,0.09146341463414635,-0.030487804878048783
2021-10-25 20:41:04.604944,0.07977294921875,0.06982421875,0.99609375,1.6923047036662446,-2.448076160491844,64.2446390378061,32.50511169433594,33.4808349609375,-57.625,111.875,32766.375,-0.12195121951219513,0.09146341463414635,-0.030487804878048783
2021-10-25 20:41:05.056096,0.080322265625,0.06939697265625,0.99566650390625,2.3567284415009477,-2.1280685305379907,64.25523672910167,32.49977111816406,33.477783203125,-56.625,107.75,-24576.25,-0.030487804878048783,0.030487804878048783,0.030487804878048783
2021-10-25 20:41:05.517468,0.07965087890625,0.06988525390625,0.9954833984375,2.771662716445693,-1.9236581145878116,64.28012894959872,32.53448486328125,33.44879150390625,-58.0,115.625,-16385.25,-0.06097560975609757,0.0,0.030487804878048783
2021-10-25 20:41:05.964463,0.079345703125,0.0693359375,0.99566650390625,1.8543757416471451,-2.3505493560227992,64.28366833836665,32.507781982421875,33.46405029296875,-58.5,114.375,24575.875,-0.06097560975609757,0.030487804878048783,0.030487804878048783
2021-10-25 20:41:06.415566,0.07891845703125,0.06951904296875,0.99652099609375,2.3847986621587216,-2.085205287580049,64.30228822537535,32.518463134765625,33.4625244140625,-56.125,113.125,-8195.875,-0.030487804878048783,0.06097560975609757,0.030487804878048783
2021-10-25 20:41:06.871864,0.0791015625,0.06817626953125,0.99658203125,2.7675744922014918,-1.8940622265098621,64.32607434300188,32.54249572753906,33.453369140625,-58.375,104.375,-16385.25,-0.06097560975609757,0.030487804878048783,0.0
2021-10-25 20:41:07.419121,0.08050537109375,0.06964111328125,0.9954833984375,3.060733521700244,-1.7729970046501453,64.35413879464872,32.497100830078125,33.4686279296875,-58.0,114.75,-24575.25,-0.030487804878048783,0.030487804878048783,-0.030487804878048783
2021-10-25 20:41:07.866013,0.08026123046875,0.06939697265625,0.995849609375,1.9932952108427548,-2.288893293766536,64.35857802883122,32.497100830078125,33.46099853515625,-57.75,114.875,24576.875,-0.030487804878048783,0.030487804878048783,-0.030487804878048783
2021-10-25 20:41:08.333535,0.080322265625,0.0693359375,0.99560546875,1.4496269994303903,-2.551256120779778,64.3499039705647,32.53181457519531,33.46405029296875,-56.25,113.75,32767.75,-0.030487804878048783,0.06097560975609757,0.0
2021-10-25 20:41:08.784460,0.07958984375,0.069580078125,0.99542236328125,1.1522336243888365,-2.6846509773561005,64.33424997307445,32.48908996582031,33.477783203125,-55.75,112.5,32767.625,-0.09146341463414635,0.09146341463414635,0.06097560975609757
2021-10-25 20:41:09.244298,0.08013916015625,0.0703125,0.99554443359375,2.0352311641475223,-2.276125827106304,64.33448043447319,32.507781982421875,33.477783203125,-60.25,112.625,-24578.5,-0.09146341463414635,-0.030487804878048783,0.06097560975609757
2021-10-25 20:41:09.690968,0.0792236328125,0.0693359375,0.9959716796875,1.4803722016056482,-2.5227325929312405,64.32709703620995,32.51579284667969,33.47320556640625,-59.625,110.25,24577.125,-0.09146341463414635,0.06097560975609757,0.030487804878048783
2021-10-25 20:41:10.141858,0.07965087890625,0.06884765625,0.9962158203125,2.12825160399252,-2.2159335895450796,64.33743626583849,32.53181457519531,33.50677490234375,-58.25,110.625,-8193.875,-0.06097560975609757,0.030487804878048783,0.030487804878048783
2021-10-25 20:41:10.607645,0.07940673828125,0.06976318359375,0.99664306640625,1.5396882546453563,-2.488539235366923,64.3315635479778,32.56919860839844,33.47015380859375,-57.5,112.0,24574.875,-0.06097560975609757,0.12195121951219513,0.030487804878048783
2021-10-25 20:41:11.065336,0.08074951171875,0.06884765625,0.99609375,2.159345457660019,-2.208189052200705,64.34177541775632,32.582550048828125,33.50067138671875,-60.5,114.0,-8193.625,-0.12195121951219513,0.09146341463414635,0.0
2021-10-25 20:41:11.538895,0.080322265625,0.0689697265625,0.9967041015625,2.643465585927455,-1.977292755063908,64.35739251465637,32.56385803222656,33.45947265625,-60.0,112.125,-24577.875,-0.06097560975609757,0.06097560975609757,-0.06097560975609757
2021-10-25 20:41:11.985570,0.0799560546875,0.06866455078125,0.99603271484375,1.7848298876913424,-2.3843869864686704,64.35684641944871,32.6092529296875,33.43963623046875,-54.625,112.875,24575.75,-0.06097560975609757,0.0,-0.030487804878048783
2021-10-25 20:41:12.451164,0.08056640625,0.06982421875,0.99554443359375,1.3552014812438615,-2.5966878292882587,64.34362890149389,32.53448486328125,33.41217041015625,-57.375,112.125,24576.5,-0.12195121951219513,0.06097560975609757,0.0
2021-10-25 20:41:12.911773,0.07977294921875,0.069580078125,0.9951171875,2.125639908745787,-2.2270232411877626,64.3481069674793,32.550506591796875,33.416748046875,-58.25,110.75,-16386.75,-0.06097560975609757,0.06097560975609757,0.030487804878048783
2021-10-25 20:41:13.468788,0.08087158203125,0.06988525390625,0.9952392578125,2.6355077591206237,-1.9945072019583745,64.36575991560859,32.54249572753906,33.404541015625,-55.5,113.125,-24576.5,-0.06097560975609757,0.06097560975609757,0.0
2021-10-25 20:41:13.915516,0.07952880859375,0.07037353515625,0.99493408203125,2.9681084913850846,-1.8308461326936345,64.39420077454692,32.518463134765625,33.380126953125,-56.375,113.125,-16385.875,-0.09146341463414635,0.030487804878048783,0.0
2021-10-25 20:41:14.427648,0.079833984375,0.0692138671875,0.99627685546875,1.9446298102352206,-2.3131928233049526,64.39772351004169,32.5238037109375,33.3770751953125,-53.875,113.625,24576.125,-0.06097560975609757,0.030487804878048783,-0.030487804878048783
2021-10-25 20:41:14.877385,0.07916259765625,0.06903076171875,0.994140625,2.4907398927735804,-2.0406696907218183,64.41179432162974,32.54249572753906,33.35723876953125,-56.0,112.0,-16385.875,-0.06097560975609757,0.06097560975609757,-0.030487804878048783
2021-10-25 20:41:15.330576,0.07952880859375,0.0687255859375,0.9945068359375,2.848140808077425,-1.8658352552420483,64.43797664160556,32.53181457519531,33.34808349609375,-56.625,113.75,-16383.75,-0.06097560975609757,0.06097560975609757,0.0
2021-10-25 20:41:15.820707,0.079833984375,0.06988525390625,0.995361328125,3.1235770833123344,-1.7377758645052002,64.46995224804277,32.54249572753906,33.3282470703125,-55.625,113.25,-32766.625,-0.12195121951219513,0.09146341463414635,0.030487804878048783
2021-10-25 20:41:16.267389,0.07952880859375,0.06903076171875,0.99676513671875,1.9911517336591285,-2.2668500942297096,64.47911119356067,32.54783630371094,33.33282470703125,-59.625,114.625,32766.375,-0.09146341463414635,0.12195121951219513,0.030487804878048783
2021-10-25 20:41:16.723050,0.07940673828125,0.07000732421875,0.997314453125,2.529858901204653,-2.013377137438314,64.49364833318121,32.53181457519531,33.33587646484375,-54.5,111.75,-16384.5,-0.030487804878048783,0.06097560975609757,-0.030487804878048783
2021-10-25 20:41:17.177443,0.07843017578125,0.06842041015625,0.99517822265625,2.882840625339628,-1.8266623398920419,64.52100383285058,32.53448486328125,33.3343505859375,-54.75,115.0,-24575.125,-0.09146341463414635,0.06097560975609757,0.030487804878048783
2021-10-25 20:41:17.631667,0.0787353515625,0.0701904296875,0.995361328125,1.9011845112225323,-2.2999947440153825,64.52637400180342,32.53448486328125,33.3038330078125,-54.375,113.875,32766.0,-0.06097560975609757,0.030487804878048783,0.030487804878048783
2021-10-25 20:41:18.080922,0.07867431640625,0.06884765625,0.99566650390625,1.3958679248097343,-2.527490851325411,64.51800109345191,32.507781982421875,33.32061767578125,-59.25,114.25,32766.75,-0.09146341463414635,0.12195121951219513,0.030487804878048783
2021-10-25 20:41:18.539954,0.080078125,0.06976318359375,0.994873046875,2.078219527809879,-2.2313161336483995,64.52326248005686,32.51579284667969,33.31451416015625,-58.75,115.25,-8194.625,-0.09146341463414635,0.030487804878048783,-0.030487804878048783
2021-10-25 20:41:19.016285,0.08050537109375,0.06988525390625,0.99560546875,2.5821612594124574,-2.0104780558859354,64.54228039541063,32.52647399902344,33.3251953125,-61.375,116.75,-16387.125,-0.06097560975609757,0.06097560975609757,0.030487804878048783
2021-10-25 20:41:19.462924,0.07989501953125,0.070068359375,0.99517822265625,1.804590605288645,-2.37992251847259,64.53871881594144,32.54249572753906,33.3282470703125,-56.75,110.375,16386.75,-0.09146341463414635,0.0,-0.030487804878048783
2021-10-25 20:41:19.937474,0.07977294921875,0.06915283203125,0.99530029296875,2.417987266463387,-2.0823222690298326,64.5516799229595,32.539825439453125,33.343505859375,-57.375,112.375,-24576.625,-0.12195121951219513,0.06097560975609757,0.030487804878048783
2021-10-25 20:41:20.387560,0.0809326171875,0.0701904296875,0.9959716796875,2.8277580786268297,-1.9021353258157492,64.57332566841866,32.5238037109375,33.343505859375,-54.5,116.875,-24578.0,-0.15243902439024393,0.030487804878048783,-0.030487804878048783
2021-10-25 20:41:20.873794,0.07928466796875,0.069091796875,0.99462890625,3.0549177617661214,-1.783856153701984,64.60935329446268,32.53181457519531,33.3404541015625,-56.25,111.75,-8194.5,-0.09146341463414635,0.06097560975609757,0.0
2021-10-25 20:41:21.320388,0.0787353515625,0.06927490234375,0.99542236328125,3.2584895612570226,-1.6719513850931509,64.64286380729703,32.55584716796875,33.36944580078125,-59.5,113.0,-24576.625,-0.06097560975609757,0.09146341463414635,-0.030487804878048783
2021-10-25 20:41:21.774845,0.07879638671875,0.0682373046875,0.994873046875,3.388096693266175,-1.598061823283377,64.68002917890995,32.56919860839844,33.3709716796875,-60.875,115.375,-24576.125,-0.06097560975609757,0.09146341463414635,-0.030487804878048783
2021-10-25 20:41:22.223979,0.07904052734375,0.0699462890625,0.995849609375,3.4684018522932174,-1.5656044647564333,64.72389929196493,32.57720947265625,33.3648681640625,-55.125,112.5,-8194.375,-0.06097560975609757,0.09146341463414635,-0.030487804878048783
2021-10-25 20:41:22.712422,0.07977294921875,0.06964111328125,0.99560546875,3.5229830991784947,-1.5550810048051704,64.76871208194069,32.53448486328125,33.380126953125,-55.625,109.5,-8195.25,-0.09146341463414635,0.06097560975609757,-0.030487804878048783
2021-10-25 20:41:23.161813,0.07977294921875,0.06927490234375,0.99591064453125,3.590095501917831,-1.5237735115604727,64.80996055183977,32.55851745605469,33.3740234375,-55.25,110.625,-24576.75,-0.09146341463414635,0.09146341463414635,-0.030487804878048783
2021-10-25 20:41:23.688797,0.0794677734375,0.0697021484375,0.995849609375,3.614664533342315,-1.5196519823882366,64.85697394507255,32.539825439453125,33.38775634765625,-57.375,110.75,-8195.375,-0.06097560975609757,0.09146341463414635,-0.030487804878048783
2021-10-25 20:41:24.135976,0.079833984375,0.0693359375,0.99554443359375,2.2344209862081983,-2.16747459903949,64.86935060499437,32.593231201171875,33.3709716796875,-57.125,114.875,24574.875,-0.06097560975609757,0.030487804878048783,0.0
2021-10-25 20:41:24.613037,0.08056640625,0.0689697265625,0.99591064453125,2.6963490143819753,-1.9607794058628185,64.8875464249511,32.5665283203125,33.380126953125,-57.375,111.875,-24575.375,-0.06097560975609757,0.030487804878048783,-0.030487804878048783
2021-10-25 20:41:25.064257,0.078369140625,0.06927490234375,0.9949951171875,2.9604230876239424,-1.8370359995858374,64.91956155471279,32.55584716796875,33.34503173828125,-65.625,110.75,-8196.875,-0.09146341463414635,0.030487804878048783,0.0
2021-10-25 20:41:25.522737,0.078369140625,0.069091796875,0.99566650390625,1.933158682255549,-2.291934066043847,64.92294474831648,32.54249572753906,33.34808349609375,-58.0,110.5,24576.375,-0.06097560975609757,0.030487804878048783,-0.030487804878048783
2021-10-25 20:41:25.969416,0.07916259765625,0.0694580078125,0.9954833984375,1.433951262786863,-2.522841027346619,64.9111326456426,32.57453918457031,33.36639404296875,-58.0,111.625,24574.5,-0.06097560975609757,0.030487804878048783,-0.030487804878048783
2021-10-25 20:41:26.422390,0.08001708984375,0.06951904296875,0.99578857421875,2.1943612878441727,-2.17992052860641,64.91460544812017,32.59056091308594,33.35113525390625,-55.5,109.25,-24577.75,-0.06097560975609757,0.06097560975609757,0.0
2021-10-25 20:41:26.884083,0.07928466796875,0.06976318359375,0.99578857421875,2.588410285169012,-2.7020249630984257,64.4143818268203,32.625274658203125,33.3709716796875,-57.0,110.0,-4.875,-0.09146341463414635,0.0,0.06097560975609757
2021-10-25 20:41:27.331249,0.079345703125,0.0693359375,0.99554443359375,2.95335297644727,-2.2188842184541313,64.45500437076024,32.593231201171875,33.3526611328125,-56.125,114.5,-8196.875,-0.09146341463414635,0.030487804878048783,0.0
2021-10-25 20:41:27.806795,0.08001708984375,0.06951904296875,0.9947509765625,3.180290455129817,-1.949913959432153,64.49714008798539,32.58522033691406,33.35723876953125,-57.125,114.0,-8196.0,-0.030487804878048783,0.030487804878048783,-0.030487804878048783
2021-10-25 20:41:28.257139,0.079345703125,0.06884765625,0.99505615234375,1.990632025955301,-2.4035415778889746,64.50729247544301,32.593231201171875,33.33740234375,-59.625,110.5,32765.625,-0.030487804878048783,0.09146341463414635,0.030487804878048783
2021-10-25 20:41:28.722619,0.07952880859375,0.069091796875,0.99542236328125,1.4251675107264015,-2.611548331866951,64.49521980507575,32.53181457519531,33.36181640625,-58.0,114.0,32765.0,-0.06097560975609757,0.09146341463414635,-0.06097560975609757
2021-10-25 20:41:29.180742,0.080322265625,0.06976318359375,0.996337890625,2.1955764080254365,-2.226377495159002,64.49737274709709,32.61726379394531,33.33892822265625,-61.375,113.75,-24577.75,-0.15243902439024393,0.06097560975609757,-0.030487804878048783
2021-10-25 20:41:29.689544,0.080322265625,0.06915283203125,0.99578857421875,1.591091862659498,-2.493526904390561,64.49135330059984,32.550506591796875,33.34197998046875,-58.875,111.375,16385.375,-0.09146341463414635,0.09146341463414635,0.030487804878048783
2021-10-25 20:41:30.138274,0.079833984375,0.06878662109375,0.99578857421875,2.2607102401678807,-2.1656056780952326,64.49821076577068,32.57453918457031,33.3465576171875,-60.375,113.25,-16385.125,-0.06097560975609757,0.06097560975609757,-0.030487804878048783
2021-10-25 20:41:30.611109,0.0797119140625,0.07025146484375,0.99554443359375,1.592854080921933,-2.480825016042874,64.49180362274802,32.56385803222656,33.355712890625,-57.5,111.875,32768.0,-0.09146341463414635,0.030487804878048783,-0.030487804878048783
2021-10-25 20:41:31.064036,0.080078125,0.06951904296875,0.9951171875,2.2127451655618047,-2.1921111401664874,64.50427346370212,32.56385803222656,33.355712890625,-58.25,110.875,-8194.75,-0.06097560975609757,0.09146341463414635,0.030487804878048783
2021-10-25 20:41:31.537069,0.080078125,0.069580078125,0.99420166015625,1.6143041017041035,-2.471171812254039,64.49832783293597,32.55584716796875,33.32977294921875,-58.375,111.625,16384.375,-0.030487804878048783,0.09146341463414635,0.030487804878048783
2021-10-25 20:41:31.983788,0.08026123046875,0.0697021484375,0.9954833984375,2.3081830401987413,-2.1421450217627367,64.5059521742067,32.57453918457031,33.35418701171875,-56.875,116.25,-24576.125,-0.06097560975609757,0.09146341463414635,0.0
2021-10-25 20:41:32.481190,0.078369140625,0.0667724609375,0.99566650390625,2.709328230351566,-1.9124761928645828,64.52672452524632,32.58522033691406,33.32977294921875,-60.625,111.0,-24577.25,-0.2134146341463415,0.06097560975609757,-0.030487804878048783
2021-10-25 20:41:32.940036,0.0797119140625,0.0684814453125,0.9959716796875,1.794646602005492,-2.3527729291640544,64.5309616878803,32.582550048828125,33.33740234375,-54.0,108.75,32768.0,-0.06097560975609757,0.030487804878048783,0.030487804878048783
2021-10-25 20:41:33.389761,0.080078125,0.06988525390625,0.99664306640625,1.3514130539090405,-2.5738907001522047,64.51586547915417,32.59857177734375,33.32672119140625,-58.5,112.375,32767.75,-0.06097560975609757,0.09146341463414635,-0.06097560975609757
2021-10-25 20:41:33.847066,0.079833984375,0.0687255859375,0.99578857421875,2.1088706837762206,-2.216436570513727,64.52066480655343,32.593231201171875,33.33587646484375,-57.25,113.0,-16386.5,-0.06097560975609757,0.06097560975609757,0.030487804878048783
2021-10-25 20:41:34.294713,0.08013916015625,0.06951904296875,0.99658203125,2.600088723953417,-1.9926342345498527,64.53883099129273,32.64396667480469,33.32672119140625,-55.125,108.625,-16387.375,-0.09146341463414635,0.030487804878048783,0.0
2021-10-25 20:41:34.745152,0.08123779296875,0.069580078125,0.99676513671875,2.89357353053435,-1.8760918628648697,64.5701133837653,32.625274658203125,33.29010009765625,-57.875,113.0,-8193.875,-0.12195121951219513,0.030487804878048783,0.0
2021-10-25 20:41:35.205970,0.08123779296875,0.06402587890625,0.999755859375,3.0248496524092703,-1.7870137530294896,64.60888783213606,32.63328552246094,33.2763671875,-57.875,108.5,-8197.375,-0.30487804878048785,0.09146341463414635,0.0
2021-10-25 20:41:35.655099,0.0789794921875,0.06884765625,0.99713134765625,1.942792623468178,-2.284361206762559,64.61853682877161,32.62794494628906,33.28857421875,-53.125,113.0,32767.0,-0.09146341463414635,0.09146341463414635,0.06097560975609757
2021-10-25 20:41:36.138286,0.0799560546875,0.06878662109375,0.99639892578125,1.4125756746922895,-2.5392247375623103,64.61245293814035,32.59857177734375,33.2794189453125,-57.875,109.0,32767.375,-0.09146341463414635,0.030487804878048783,0.06097560975609757
2021-10-25 20:41:36.665953,0.079345703125,0.07037353515625,0.996826171875,1.1577644906386093,-2.6653343996093684,64.59378305789845,32.59857177734375,33.22906494140625,-53.125,111.25,24575.5,-0.09146341463414635,0.030487804878048783,0.030487804878048783
2021-10-25 20:41:37.112948,0.06561279296875,0.0830078125,1.0062255859375,1.0751941658911561,-2.2573784591430393,69.60808752347496,32.64129638671875,33.221435546875,-60.0,105.875,16386.375,2.347560975609756,8.048780487804878,102.59146341463415
2021-10-25 20:41:37.589164,-0.20587158203125,-0.4293212890625,0.68792724609375,-11.088239934265877,9.871245274508082,67.06795153128655,32.5665283203125,33.3038330078125,-160.75,65.5,-24581.5,-119.66463414634147,168.44512195121953,-60.060975609756106
2021-10-25 20:41:38.041947,0.1546630859375,-0.0196533203125,0.71441650390625,-15.32897634829233,11.77910978609728,69.18044709433724,32.49977111816406,33.38623046875,-85.875,113.25,36.0,-139.26829268292684,106.92073170731709,109.35975609756099
2021-10-25 20:41:38.502220,-0.1607666015625,0.0059814453125,0.96051025390625,-10.72191938811306,10.897951948997253,83.90338133785218,32.46238708496094,33.4686279296875,8198.875,96.375,27.0,-35.274390243902445,-76.03658536585367,11.707317073170733
2021-10-25 20:41:38.949578,-0.02337646484375,0.03436279296875,1.01068115234375,-8.108948048805024,8.393414176392419,87.74596499579118,32.45704650878906,33.5113525390625,14.5,91.0,30.25,-2.3170731707317076,-0.9451219512195123,-2.682926829268293
2021-10-25 20:41:39.400601,0.176513671875,-0.24420166015625,1.0802001953125,-11.451664709844856,0.021579388424503184,92.40982054023081,32.4383544921875,33.57696533203125,16.625,101.0,26.75,-45.304878048780495,-97.28658536585367,18.29268292682927
2021-10-25 20:41:39.865319,0.00140380859375,0.0233154296875,1.00048828125,-8.660135818111044,0.005583109176433989,93.64492301453775,32.411651611328125,33.7738037109375,15.375,108.875,17.625,0.09146341463414635,-0.30487804878048785,-0.15243902439024393
2021-10-25 20:41:40.379552,-0.1318359375,-0.1005859375,0.98577880859375,-8.148789880929439,9.099344710870707,86.77104274729565,32.454376220703125,33.9508056640625,-52.875,111.625,44.5,15.091463414634148,133.26219512195124,-19.847560975609756
2021-10-25 20:41:40.828125,-0.27685546875,0.0050048828125,0.9625244140625,-6.6619217325014,10.943759032937313,85.45800493388832,32.46238708496094,34.04388427734375,-28.875,109.25,44.375,-4.359756097560976,-3.9024390243902443,1.3109756097560976
2021-10-25 20:41:41.302537,-0.1910400390625,-0.0146484375,0.94293212890625,-7.796325681026385,7.3942628948008196,99.8101008335746,32.40364074707031,34.136962890625,8207.125,81.5,36.0,-86.76829268292684,-130.91463414634148,2.3170731707317076
2021-10-25 20:41:41.758826,0.189697265625,-0.4046630859375,0.89105224609375,-12.688905692891243,-0.5182755570314849,112.63463935783543,32.38761901855469,34.185791015625,65.0,22.375,15.375,3.1402439024390247,-88.8109756097561,15.670731707317074
2021-10-25 20:41:42.228660,-0.26220703125,-0.2117919921875,0.982177734375,-7.176088537272491,14.255652034372469,111.95256132288722,32.37693786621094,34.210205078125,-172.375,127.625,32767.0,109.63414634146342,216.89024390243904,3.50609756097561
2021-10-25 20:41:42.677024,-0.4410400390625,0.1307373046875,0.9066162109375,-11.635454237442488,11.909961831769325,97.58139529590585,32.379608154296875,34.25750732421875,-8207.875,54.5,64.25,-86.64634146341464,-161.18902439024393,-115.76219512195122
2021-10-25 20:41:43.128600,-0.8214111328125,-0.03521728515625,0.4906005859375,-7.227836930915577,27.743162270378146,92.86773312225026,32.36091613769531,34.283447265625,-160.25,110.125,20.0,82.95731707317074,78.9329268292683,102.92682926829269
2021-10-25 20:41:43.576335,-0.25811767578125,-0.23779296875,1.0052490234375,-7.7378911182443,31.105375435515782,85.595891275483,32.2674560546875,34.3292236328125,-104.5,113.625,41.75,49.32926829268293,67.83536585365854,2.3170731707317076
2021-10-25 20:41:44.029682,-0.0736083984375,-0.0845947265625,1.09100341796875,-6.561322469656641,20.94303674505507,84.0993399528074,32.219390869140625,34.51080322265625,-35.375,129.25,37.875,17.77439024390244,-93.96341463414635,-41.18902439024391
2021-10-25 20:41:44.499392,0.486328125,0.230712890625,0.80303955078125,10.677378047140413,6.352590773903057,90.60995312611196,32.208709716796875,34.820556640625,27.625,171.0,-16390.125,116.85975609756099,-29.542682926829272,90.82317073170732
2021-10-25 20:41:44.953271,0.23687744140625,0.48541259765625,0.4478759765625,22.45681583847898,4.5455902737581795,102.96776695101757,32.198028564453125,35.10589599609375,48.0,112.75,-77.875,57.50000000000001,97.8048780487805,139.1768292682927
2021-10-25 20:41:45.420644,0.52392578125,0.17474365234375,1.09228515625,20.983859003464207,2.1025312691409463,107.7771410123631,32.15263366699219,35.56671142578125,27.625,-7.125,-40.75,-48.38414634146342,8.292682926829269,35.82317073170732
2021-10-25 20:41:45.940857,0.64990234375,-0.04852294921875,0.2882080078125,22.407815180058506,-10.579086008647613,86.23283949669624,32.06718444824219,35.6201171875,-16398.0,149.5,-36.625,49.207317073170735,-127.7439024390244,-228.14024390243904
2021-10-25 20:41:46.388374,-0.4984130859375,0.66656494140625,0.9398193359375,29.396391344185023,-6.283786152358594,77.43421880839371,32.08320617675781,35.4278564453125,-24589.125,186.375,-62.75,75.79268292682927,6.402439024390245,67.25609756097562
2021-10-25 20:41:46.904999,0.2677001953125,-0.15234375,1.3756103515625,22.064895447328865,-7.445897755897127,79.49564598536293,32.0751953125,35.4217529296875,-8207.625,74.875,15.375,3.4756097560975614,152.9268292682927,224.84756097560978
2021-10-25 20:41:47.355328,0.0408935546875,0.67230224609375,0.49652099609375,13.775556941212884,-19.36909616823534,81.76332950771148,31.992416381835938,35.3485107421875,16384.75,129.5,8206.75,-178.109756097561,-179.75609756097563,-102.04268292682927
2021-10-25 20:41:47.818689,0.26190185546875,0.24676513671875,0.9849853515625,11.242163768658722,-20.834725509796705,89.29929573845718,32.08320617675781,35.2935791015625,55.0,91.125,-26.0,-47.40853658536586,-33.71951219512196,3.231707317073171
2021-10-25 20:41:48.270214,0.4710693359375,0.0850830078125,1.068359375,9.754374234995897,-17.184437604803705,98.93137527657565,32.027130126953125,35.2569580078125,79.375,16389.125,-24580.125,32.43902439024391,65.64024390243902,116.73780487804879
2021-10-25 20:41:48.744835,0.7501220703125,0.15802001953125,0.6405029296875,14.02203676292279,-23.558695466168338,95.52838852625513,31.960372924804688,35.1959228515625,34.25,105.75,-8.75,45.670731707317074,-9.939024390243903,-92.25609756097562
2021-10-25 20:41:49.191380,0.20404052734375,0.0770263671875,0.986572265625,8.18256508730461,-23.83489171966656,95.75768660929297,31.917648315429688,35.16998291015625,40.75,73.5,-19.875,-113.68902439024392,-64.72560975609757,-86.40243902439025
2021-10-25 20:41:49.646621,0.4871826171875,0.10943603515625,0.67156982421875,11.804711871104328,-29.562100889898467,109.39530770632875,31.930999755859375,35.2081298828125,92.25,50.125,-62.375,79.72560975609757,-65.64024390243902,64.75609756097562
2021-10-25 20:41:50.096509,0.80633544921875,-0.10028076171875,0.81268310546875,11.908388065028666,-35.63524502539017,118.45273865716557,31.87225341796875,35.29205322265625,70.125,60.5,-36.75,98.71951219512196,-33.75,21.189024390243905
2021-10-25 20:41:50.627488,0.349365234375,-0.04302978515625,0.98675537109375,4.12811324480105,-30.61067275940839,115.21228503654723,31.896286010742188,35.2783203125,46.75,66.875,-22.625,-162.13414634146343,26.189024390243905,-111.03658536585367
2021-10-25 20:41:51.075440,0.33013916015625,0.30682373046875,0.88677978515625,8.653397350668428,-28.411053075010344,119.52497262138425,31.856231689453125,35.34393310546875,50.625,113.25,-65.875,62.04268292682927,5.0,81.12804878048782
2021-10-25 20:41:51.578627,0.71875,-0.01092529296875,0.98779296875,9.504453509966794,-27.502180713584092,130.20456651537685,31.8402099609375,35.418701171875,63.5,71.125,-17.125,129.359756097561,86.76829268292684,124.32926829268294
2021-10-25 20:41:52.026867,0.70391845703125,0.4765625,0.22802734375,21.020231243922993,-32.87996514103011,122.0100824872864,31.837539672851562,35.3912353515625,28.75,134.375,-50.375,100.85365853658537,19.26829268292683,2.957317073170732
2021-10-25 20:41:52.493441,-0.6064453125,0.53875732421875,0.45758056640625,20.8877956966894,-26.660499825151692,107.35301812427063,31.762771606445312,35.3515625,-24581.0,93.75,8203.625,-200.97560975609758,-12.286585365853659,-34.29878048780488
2021-10-25 20:41:52.948387,-0.0167236328125,-0.18328857421875,1.185546875,8.99879037278085,-18.48166408081438,100.94229049261189,31.762771606445312,35.4522705078125,-38.875,28.875,26.25,-63.07926829268293,19.878048780487806,8.78048780487805
2021-10-25 20:41:53.399838,0.104248046875,-0.0543212890625,0.9932861328125,5.635882066174923,-12.819061389495625,89.72681566386511,31.770782470703125,35.540771484375,-38.625,48.0,31.25,-7.743902439024391,-19.603658536585368,-74.90853658536587
2021-10-25 20:41:53.847695,0.51434326171875,-0.27471923828125,1.52392578125,5.835780003467645,-16.565829179077895,83.37362232171601,31.717376708984375,35.45684814453125,-119.0,113.625,10.125,73.41463414634147,-40.640243902439025,41.21951219512196
2021-10-25 20:41:54.311029,-0.68353271484375,-0.31591796875,0.7996826171875,0.14488994283046916,-10.490920529509967,66.3500414311503,31.720046997070312,35.38970947265625,-164.875,88.375,37.0,-85.73170731707317,-83.9939024390244,-183.81097560975613
2021-10-25 20:41:54.762834,-0.4224853515625,-0.060302734375,0.87738037109375,0.04188932100186483,-3.730183938041518,62.10164069246189,31.709365844726562,35.45379638671875,-120.5,106.625,34.375,28.14024390243903,-18.689024390243905,13.567073170731708
2021-10-25 20:41:55.282879,-0.0169677734375,-0.01763916015625,0.99810791015625,-0.7490822862239945,-2.523056709459331,60.194917188868374,31.7120361328125,35.6201171875,-105.0,141.25,26.125,-9.115853658536587,0.27439024390243905,0.06097560975609757
2021-10-25 20:41:55.730741,-0.016845703125,-0.00274658203125,1.00323486328125,-0.6776076246581835,-1.6231946650193512,58.85956588372255,31.728057861328125,35.6903076171875,-101.625,140.375,27.0,0.853658536585366,0.1829268292682927,0.030487804878048783
2021-10-25 20:41:56.200384,-0.016845703125,0.0020751953125,1.0023193359375,-0.569317827489435,-0.9481728584756536,57.85157752859179,31.67999267578125,35.748291015625,-102.75,142.625,27.0,0.27439024390243905,0.12195121951219513,0.030487804878048783
2021-10-25 20:41:56.647435,-0.0164794921875,0.00347900390625,1.0030517578125,-0.4832322838911509,-0.4215739174536506,56.629790812002526,31.70135498046875,35.75286865234375,-107.5,138.375,23.125,0.12195121951219513,0.030487804878048783,0.0
2021-10-25 20:41:57.105357,-0.016845703125,0.0047607421875,1.00439453125,-0.36739271729556106,-0.043704650015122984,55.94276481057435,31.70135498046875,35.791015625,-106.0,142.75,25.0,0.12195121951219513,0.09146341463414635,0.0
2021-10-25 20:41:57.556901,-0.01873779296875,0.00604248046875,1.00384521484375,-0.27032043270572936,0.2891046732312162,55.25744996258176,31.725387573242188,35.809326171875,-104.5,137.25,24.25,-0.030487804878048783,0.3353658536585366,-0.12195121951219513
2021-10-25 20:41:58.005908,-0.02166748046875,0.00555419921875,1.002685546875,-0.17914966257537013,0.5448811204427795,54.970532506656454,31.717376708984375,35.8306884765625,-105.125,144.0,26.125,-0.24390243902439027,0.3353658536585366,-0.12195121951219513
2021-10-25 20:41:58.462257,-0.0224609375,0.00439453125,1.0050048828125,-0.14098291693634105,0.7885943264344032,54.37332302822417,31.704025268554688,35.82763671875,-106.5,136.625,24.75,-0.030487804878048783,0.27439024390243905,0.030487804878048783
2021-10-25 20:41:58.943575,-0.0235595703125,0.00518798828125,1.0042724609375,-0.05594700964835239,0.9294040244584423,54.235550516943626,31.725387573242188,35.80474853515625,-104.0,141.125,26.0,0.06097560975609757,0.06097560975609757,-0.030487804878048783
2021-10-25 20:41:59.392375,-0.0223388671875,0.00494384765625,1.00244140625,-0.014389844441799377,1.051431547767766,53.93875266635062,31.7547607421875,35.8367919921875,-105.75,138.75,27.875,-0.030487804878048783,0.12195121951219513,0.030487804878048783
2021-10-25 20:41:59.874122,-0.02215576171875,0.00762939453125,1.00469970703125,0.0792927254755085,1.1012422705678488,53.94633386331147,31.741409301757812,35.84442138671875,-102.625,140.25,29.25,-0.09146341463414635,0.09146341463414635,0.030487804878048783
2021-10-25 20:42:00.320761,-0.02337646484375,0.00750732421875,1.00372314453125,0.14900217580214384,1.156673443789644,53.947624807044186,31.7547607421875,35.80169677734375,-102.875,140.5,27.5,-0.12195121951219513,0.09146341463414635,0.06097560975609757
2021-10-25 20:42:00.774016,-0.02166748046875,0.00579833984375,1.0040283203125,0.16676934675221708,1.2016931982715142,53.78114283411118,31.74407958984375,35.7818603515625,-106.0,140.75,28.25,-0.09146341463414635,0.09146341463414635,-0.030487804878048783
2021-10-25 20:42:01.227010,-0.02294921875,0.00640869140625,1.0028076171875,0.20303856153377547,1.2319072526515917,53.755418730244685,31.736068725585938,35.7025146484375,-102.625,138.75,27.375,-0.09146341463414635,0.06097560975609757,-0.030487804878048783
2021-10-25 20:42:01.679317,-0.02313232421875,0.0057373046875,1.0035400390625,0.23520414375313026,1.2401176917805752,53.83698401488163,31.770782470703125,35.65826416015625,-103.75,142.75,27.0,-0.06097560975609757,0.0,0.0
2021-10-25 20:42:02.140505,-0.0225830078125,0.0072021484375,1.00341796875,0.26970342665212504,1.257936209210247,53.78118283744431,31.760101318359375,35.6353759765625,-105.25,141.875,23.375,0.030487804878048783,0.0,0.06097560975609757
2021-10-25 20:42:02.663148,-0.02325439453125,0.006591796875,1.00250244140625,0.3039154977792803,1.258511031347605,53.90725153319572,31.778793334960938,35.57891845703125,-103.375,143.5,29.75,-0.06097560975609757,0.09146341463414635,-0.06097560975609757
2021-10-25 20:42:03.110838,-0.0216064453125,0.00677490234375,1.00299072265625,0.3157858725170405,1.2605889502750973,53.876922565617136,31.778793334960938,35.47210693359375,-105.75,143.5,28.75,-0.06097560975609757,0.06097560975609757,0.0
2021-10-25 20:42:03.588918,-0.0225830078125,0.0078125,1.0013427734375,0.30158111122252823,1.317170345326818,53.54148527135963,31.768112182617188,35.3271484375,-106.5,136.875,30.875,-0.06097560975609757,-0.06097560975609757,0.0
2021-10-25 20:42:04.035516,-0.0213623046875,0.0069580078125,1.00372314453125,0.3384136143592919,1.276814150406477,53.680959901640854,31.770782470703125,35.23406982421875,-102.875,141.75,31.25,0.0,0.06097560975609757,0.0
2021-10-25 20:42:04.499543,-0.02142333984375,0.009521484375,1.00299072265625,0.3626698027208869,1.2929817280239797,53.510591084247274,31.7547607421875,35.2447509765625,-104.625,137.5,26.125,-0.06097560975609757,0.09146341463414635,0.0
2021-10-25 20:42:04.947711,-0.02252197265625,0.006591796875,1.00299072265625,0.3831372639132035,1.269874879656719,53.711491394833736,31.746749877929688,35.321044921875,-101.75,141.75,24.625,-0.030487804878048783,0.09146341463414635,-0.030487804878048783
2021-10-25 20:42:05.471020,-0.02252197265625,0.00604248046875,1.0023193359375,0.3606160282474152,1.2919535465339678,53.60773629924605,31.741409301757812,35.43548583984375,-105.5,140.375,29.125,-0.06097560975609757,0.06097560975609757,0.0
2021-10-25 20:42:05.926199,-0.022705078125,0.006591796875,1.00274658203125,0.36721834995062463,1.2878130219798578,53.666492026933796,31.752090454101562,35.49346923828125,-103.0,140.375,27.75,-0.06097560975609757,0.06097560975609757,0.030487804878048783
